File: Testing Code/Flexural Specimen/K-P-K 2 F.csv
0
24.36638
32.56798
39.5298
50.02022
55.88531
62.22725
74.86343
82.54051
87.11815
96.08269
103.2352
108.3851
116.5867
122.5471
128.7937
138.2828
143.0988
148.7732
157.9762
165.081
172.5674
177.3357
185.585
191.5455
199.3656
206.1367
208.5209
219.5835
223.4459
231.2183
235.1284
241.7088
245.7619
254.3926
260.2577
264.9784
271.6064
278.6636
281.9538
290.2508
293.1118
298.1663
301.9333
309.515
314.3311
319.767
325.7751
328.3501
335.1212
338.316
343.6089
349.7601
351.5244
358.1524
365.4003
370.0733
369.7395
376.5583
380.6591
387.4302
392.4847
394.3443
397.0623
404.4056
408.7925
411.9873
418.2816
422.2393
424.1943
429.1058
432.7297
435.5431
442.8387
445.2705
451.6602
454.1874
457.9067
460.8631
464.7732
470.5906
473.1655
475.8835
481.4148
484.4666
486.8507
491.5237
493.145
499.6777
502.348
503.9692
507.8793
512.2185
516.7484
519.8956
524.2347
525.9514
530.4337
535.1067
536.7279
540.3519
543.2129
547.6952
551.6529
553.7033
554.7047
558.6624
562.2864
567.627
569.582
574.3981
576.0193
579.5956
581.5029
585.6514
585.6991
589.8953
592.2794
594.8544
600.8625
601.0056
604.0096
610.3516
610.2085
613.308
615.0723
619.8406
621.5095
624.2275
625.1335
627.7084
630.0927
632.4768
636.9114
643.8732
642.7288
646.4958
643.9686
649.9291
651.3596
653.553
655.4603
660.2288
662.3745
664.5203
663.3282
670.1946
669.8132
673.2941
674.0093
679.7791
678.4439
679.7314
685.2627
685.2627
688.9343
691.4139
694.1318
695.2286
697.7558
699.4247
701.809
703.8116
705.6713
709.9152
710.1536
710.0582
673.7232
666.9998
666.6183
663.1375
666.0461
669.5747
671.196
669.0502
670.0516
676.012
675.0107
681.3526
681.3526
682.9261
681.6387
687.4084
686.9793
688.6959
690.3171
692.2245
692.8921
695.2286
696.2299
699.5201
700.2831
700.3307
703.8593
701.4752
700.8552
706.2912
704.4315
706.1481
705.9097
708.1031
708.7708
707.8171
707.1495
707.5787
707.531
711.2026
709.7244
709.5814
711.9178
711.3934
709.5337
709.9152
710.392
711.0596
711.6318
712.4424
713.1577
713.9683
714.6835
715.3988
716.114
716.7816
717.3538
717.7353
717.8307
717.3538
716.7816
716.0663
715.3988
714.9219
714.7789
714.7789
714.9219
715.0173
715.1604
715.1604
715.2557
715.4941
715.8279
716.2094
716.5432
716.877
717.3538
717.8307
718.3075
718.8797
719.3566
720.0718
720.7394
721.4546
722.2653
722.9805
723.6957
724.2679
724.8401
725.317
725.8892
726.4614
727.0813
727.7966
728.6072
729.5132
730.2284
731.0391
731.7543
732.3265
732.8987
733.2325
733.614
733.8524
733.9478
734.1862
734.4246
734.7584
735.1398
735.569
735.9504
736.2842
736.618
736.8564
737.0948
737.3333
737.5717
737.6671
737.6671
737.6671
737.4763
737.0948
736.618
736.1889
735.569
735.1398
734.663
734.2816
734.0431
733.8524
733.7094
733.4709
733.2325
733.1371
733.1371
733.1371
732.9941
732.8987
732.8033
732.5649
732.4219
732.3265
732.3265
732.3265
732.0881
731.8497
731.5159
731.0391
730.5622
729.99
729.4178
728.7979
728.2257
727.7489
727.272
726.6998
726.1276
725.5554
724.9355
708.2939
704.1931
699.9969
696.1346
694.4656
692.1768
684.6905
667.2859
648.0694
624.7043
612.8788
603.4851
591.8979
580.1678
573.3013
563.2401
560.379
557.4226
551.7483
548.8396
545.2156
541.4963
539.5889
538.3969
532.9609
528.4786
522.3751
518.8942
516.5577
513.3629
511.5986
506.4964
503.8261
504.0169
499.0578
494.7186
489.0919
486.2785
483.4652
484.4666
482.3208
478.8876
478.6491
475.7404
474.8821
469.8753
460.1956
441.7419
402.8797
383.6155
372.6959
356.9126
347.8527
346.0407
339.1743
337.8391
331.0204
328.3501
325.2029
320.7684
319.4332
318.718
319.0994
316.9537
318.718
315.8569
313.3297
314.3787
312.6621
312.8052
312.4237
308.6567
302.3624
300.1213
295.5914
289.1541
288.4865
285.4824
285.6255
279.8557
279.665
276.1364
272.274
270.6528
266.695
266.5043
265.8367
265.0261
260.1147
259.3994
261.116
258.8272
256.3477
253.7727
253.0575
253.2482
250.4826
251.3409
251.3885
249.815
253.2005
255.2986
252.5806
252.3422
252.4853
252.5806
252.8191
253.0575
253.2959
253.6297
254.1065
254.488
254.8218
255.1556
255.6324
255.8708
256.3477
256.6815
257.1583
257.6351
258.0643
258.5411
259.0656
259.5901
260.067
260.5438
260.8776
261.116
261.3544
261.4498
261.6882
261.9266
262.1651
262.4035
262.6419
262.8803
262.9757
262.9757
262.9757
263.2141
263.3572
263.4525
263.6909
263.9294
264.0247
264.0247
263.9294
263.7863
263.7863
263.6909
263.6909
263.7863
263.9294
264.0247
264.1678
264.1678
264.2632
264.2632
264.1678
264.1678
263.7863
263.7863
263.6909
263.7863
263.9771
264.1678
264.5016
264.74
265.0261
265.3122
265.5506
265.789
265.9321
266.1228
266.3612
266.5997
266.8381
267.0765
267.3149
267.3149
267.4103
267.6487
267.7917
267.8871
267.8871
267.8871
267.8871
267.8871
267.8871
267.7917
267.6487
267.4103
267.2195
267.0765
266.9811
266.9811
266.9811
267.1719
267.4103
267.7917
268.2686
268.6024
268.9362
269.1746
269.413
269.6514
269.8898
269.9852
270.2236
270.3667
270.462
270.7004
270.9389
271.2726
271.5111
271.8448
272.2263
272.4648
272.7985
273.037
273.2754
273.3707
273.7522
273.8476
274.086
274.3244
274.4198
274.6582
274.8966
275.2304
275.4688
275.6119
275.6119
275.6119
275.7072
275.8503
276.0887
276.3271
276.5179
276.7563
276.9947
277.2331
277.4716
277.5669
277.71
277.8053
277.8053
277.9484
278.0438
278.2822
278.5206
278.759
278.9974
279.2358
279.3312
279.4742
279.7127
279.9034
279.9034
280.0941
280.1418
280.2849
280.3802
280.5233
280.6187
280.6187
280.7617
280.8571
280.8571
280.8571
280.9525
280.9525
281.1909
281.3339
281.4293
281.4293
281.4293
281.4293
281.4293
281.4293
281.5723
281.6677
281.6677
281.8108
281.9061
281.8108
281.8108
281.8108
281.8108
281.9061
281.8108
281.8108
281.8108
281.8108
281.8108
281.9061
282.0492
282.1445
282.2399
282.2399
282.2399
282.2399
282.2399
282.2399
282.2399
282.2399
282.2399
282.2399
282.2399
282.2399
282.1445
282.1445
282.1445
282.1445
282.0492
281.9061
281.9061
281.9061
281.9061
281.9061
281.8108
281.6677
281.6677
281.4293
281.1909
281.0955
280.8571
280.7617
280.6187
280.5233
280.2849
280.1418
280.1418
279.9034
279.9034
279.808
279.9034
279.808
279.9034
279.9034
279.9034
279.9034
279.9034
280.0464
280.0464
280.1418
280.1418
280.1418
280.2849
280.1418
280.0464
280.0464
279.808
279.808
279.5696
279.4742
279.4742
279.2358
279.2358
279.0928
279.0928
278.9974
278.8544
278.616
278.2822
277.9484
277.5669
277.4716
276.9947
276.7563
276.4225
275.9457
275.3735
274.5628
273.8476
272.8939
271.8925
271.0819
270.1759
269.3176
268.364
267.4103
266.3612
265.3122
264.2632
263.3572
262.4035
261.6406
261.0207
260.3054
259.7809
259.0179
258.4457
257.8735
257.3967
257.0152
256.5861
256.1093
255.394
254.5357
253.4389
252.2469
251.0071
249.9104
248.9567
248.0984
247.3354
246.7632
246.191
245.7142
245.0466
244.4267
244.0453
243.5207
243.1393
242.8055
242.424
242.0902
241.6611
241.375
241.1366
240.8981
240.5643
240.2306
239.8968
239.5153
239.2769
239.0385
238.8
238.5616
238.3232
237.9894
237.6556
237.3219
236.9404
236.6066
236.2728
236.0344
235.796
235.5576
235.3191
235.3191
235.0807
235.0807
234.7469
234.2701
233.3164
231.9336
215.7688
217.9623
212.8601
211.9064
215.9595
217.3424
214.7675
215.3873
215.292
216.9609
215.0059
214.8628
214.7675
214.6244
214.4337
214.2906
214.1953
214.0522
213.9568
213.8138
213.8138
213.7184
213.5754
213.48
213.2416
213.0032
212.7647
212.2879
211.9541
211.4773
211.1435
210.619
210.0945
209.7607
209.1408
208.807
208.3302
207.7579
207.3288
206.8043
206.3274
205.7552
205.183
204.6108
203.8956
203.1803
202.5127
201.7975
201.0822
200.4147
199.604
198.7457
197.8397
196.7907
195.5032
194.2158
192.9283
191.6885
190.5918
189.5428
188.5891
187.7785
187.2063
186.6817
186.3956
185.9188
185.6804
185.442
185.1082
184.8698
184.536
184.1545
183.8207
183.1055
182.3425
181.3412
180.1968
179.1477
178.0987
177.3834
176.7159
176.0006
175.6191
175.2853
174.8085
174.5701
174.1886
173.7595
173.521
173.3303
173.0919
172.8535
172.5197
172.1382
171.6614
171.0892
170.517
169.8971
169.3249
168.7527
168.0374
167.4652
166.75
166.1777
165.5102
164.8903
164.175
163.269
162.2677
161.0279
159.8835
158.6437
157.547
156.5933
155.8304
155.2105
154.4952
154.0184
153.4462
152.9217
152.3972
151.8726
151.3481
150.7759
150.2037
149.5361
148.6778
147.7242
146.6751
145.5307
144.2432
142.9081
141.4299
140.1424
139.0934
138.1397
137.6152
137.2337
136.9953
136.7569
136.6615
136.5185
136.3754
136.0416
135.8032
135.5648
135.3741
134.9926
134.5158
133.8482
133.0376
132.1316
131.5117
130.9395
130.558
130.3196
130.3196
130.2242
130.0812
130.0812
130.0812
130.0812
130.0812
130.0812
130.2242
130.3196
130.3196
130.4626
130.3196
130.3196
130.3196
130.2242
130.0812
129.7474
129.0321
112.1521
111.866
112.1998
106.5731
107.8129
107.4791
107.0976
104.8565
105.5241
103.7598
103.8074
100.0881
101.1848
102.0908
100.1835
95.89195
99.75433
96.41647
95.36743
92.17262
93.03093
90.45601
91.79115
91.362
93.6985
91.74347
90.36064
90.93285
92.84019
92.98325
92.60178
92.26799
92.02957
91.79115
91.55273
91.55273
91.45737
91.45737
91.50505
91.45737
91.55273
91.45737
91.31432
91.21895
90.98053
90.74211
90.40833
90.16991
89.69307
89.35928
89.21623
88.88245
88.64403
88.40561
88.31024
88.16719
88.16719
88.07182
88.07182
87.92877
87.8334
87.59499
87.49962
87.49962
87.59499
87.49962
87.49962
87.49962
87.35657
87.2612
87.11815
86.92741
86.87973
86.78436
86.54594
86.30753
85.97374
85.59227
85.25848
84.9247
84.44786
84.06639
83.7326
83.39882
83.1604
82.82661
82.5882
82.34978
82.11136
81.96831
81.77757
81.53915
81.3961
81.25305
80.91927
80.58548
80.01328
79.53644
79.20265
78.82118
78.58276
78.4874
78.24898
78.15361
78.01056
77.91519
77.77214
77.43835
76.96152
76.48468
75.96016
75.57869
75.19722
74.9588
74.9588
74.86343
74.76807
74.62502
74.33891
74.05281
73.81439
73.48061
73.09914
72.76535
72.52693
72.43156
72.19315
71.95473
71.71631
71.66862
71.57326
71.57326
71.47789
71.57326
71.57326
71.57326
71.57326
71.57326
71.47789
71.47789
71.47789
71.57326
71.57326
71.57326
71.57326
71.47789
71.47789
71.23947
71.1441
71.00105
71.00105
70.95337
71.00105
71.00105
71.00105
70.90569
70.76263
70.76263
70.66727
70.52422
70.52422
70.52422
70.42885
70.42885
70.42885
70.33348
70.33348
70.33348
70.33348
70.33348
70.42885
70.42885
70.52422
70.52422
70.52422
70.52422
70.42885
70.19043
70.19043
70.09506
70.09506
70.09506
70.09506
70.19043
70.19043
70.19043
70.09506
70.09506
69.85664
69.85664
69.85664
69.85664
69.85664
69.85664
69.85664
69.71359
69.61823
69.61823
69.61823
69.61823
69.47517
69.47517
69.37981
69.37981
69.23676
69.23676
69.37981
69.37981
69.47517
69.47517
69.47517
69.61823
69.61823
69.52286
69.61823
69.71359
69.85664
69.95201
70.19043
70.33348
70.42885
70.52422
70.52422
70.66727
70.52422
70.5719
70.52422
70.66727
70.76263
70.76263
70.90569
71.00105
71.00105
71.00105
71.00105
71.1441
71.1441
71.23947
71.23947
71.38252
71.47789
71.47789
71.57326
71.57326
71.71631
71.81168
71.81168
71.95473
71.95473
71.95473
71.95473
71.95473
71.95473
71.95473
72.05009
72.19315
72.05009
72.19315
72.19315
72.28851
72.28851
72.28851
72.43156
72.43156
72.43156
72.28851
72.28851
72.28851
72.19315
72.05009
71.95473
72.05009
72.05009
72.19315
72.28851
72.28851
72.19315
72.19315
72.05009
72.05009
71.95473
71.95473
71.95473
71.95473
71.95473
72.05009
72.05009
71.95473
71.95473
71.95473
71.81168
71.81168
71.81168
71.85936
71.81168
71.71631
71.71631
71.71631
71.62094
71.57326
71.47789
71.47789
71.38252
71.23947
71.23947
71.23947
71.23947
71.23947
71.23947
71.38252
71.38252
71.23947
71.23947
71.1441
71.1441
71.1441
71.00105
71.1441
71.1441
71.23947
71.23947
71.23947
71.1441
71.00105
70.90569
70.90569
70.76263
70.76263
70.66727
70.66727
70.52422
70.52422
70.52422
70.52422
70.52422
70.42885
70.42885
70.33348
70.42885
70.42885
70.33348
70.33348
70.19043
69.99969
69.85664
69.61823
69.47517
69.61823
69.61823
69.61823
69.71359
69.71359
69.71359
69.71359
69.71359
69.71359
69.71359
69.71359
69.71359
69.61823
69.47517
69.37981
69.23676
69.23676
69.23676
69.37981
69.37981
69.47517
69.47517
69.47517
69.37981
69.23676
69.14139
69.04602
68.90297
68.8076
68.8076
68.56918
68.47382
68.33076
68.18771
68.09235
67.99698
67.85393
67.85393
67.90161
67.99698
68.09235
68.09235
68.18771
68.33076
68.18771
68.09235
68.09235
67.85393
67.75856
67.75856
67.61551
67.75856
67.75856
67.61551
67.61551
67.52014
67.37709
67.28172
67.13867
67.0433
67.0433
66.90025
66.90025
66.80489
66.80489
66.80489
66.80489
66.85257
66.90025
67.0433
67.13867
67.28172
67.37709
67.52014
67.52014
67.52014
67.61551
67.61551
67.75856
67.75856
67.99698
68.09235
68.18771
68.18771
68.18771
68.18771
68.09235
68.09235
67.99698
67.99698
67.99698
67.99698
68.09235
68.09235
68.18771
68.18771
68.18771
68.33076
68.42613
68.42613
68.56918
68.56918
68.56918
68.56918
68.66455
68.66455
68.8076
68.85529
68.8076
68.90297
68.90297
68.90297
69.04602
68.90297
69.04602
69.04602
68.95065
69.04602
68.90297
68.90297
68.90297
68.90297
69.04602
69.04602
69.04602
69.04602
68.90297
69.04602
69.04602
69.14139
69.14139
69.14139
69.18907
69.14139
69.23676
69.14139
69.14139
69.14139
69.14139
69.23676
69.23676
69.47517
69.47517
69.61823
69.47517
69.61823
69.61823
69.61823
69.61823
69.61823
69.71359
69.85664
69.90433
69.95201
69.85664
69.85664