File: Testing Code/Flexural Specimen/P-K-P 3 S.csv
0
0.006166667
0.02042708
0.03540625
0.05036458
0.06541666
0.08036458
0.09540625
0.110375
0.1254063
0.1403854
0.1553854
0.1704063
0.1853854
0.2003854
0.2153854
0.2304063
0.2453854
0.260375
0.2754062
0.2903854
0.305375
0.320375
0.3354062
0.3503854
0.365375
0.3804063
0.3953854
0.4104062
0.4253542
0.4404167
0.4553646
0.4703958
0.485375
0.5004166
0.515375
0.5303854
0.5454062
0.560375
0.5753854
0.5903854
0.6054062
0.620375
0.635375
0.6504062
0.6653854
0.6803854
0.695375
0.7104062
0.7253854
0.7403646
0.7554063
0.7703854
0.7854062
0.8003542
0.8154271
0.8303646
0.8453958
0.860375
0.8754063
0.8903854
0.905375
0.9204062
0.935375
0.950375
0.9653854
0.9804062
0.9953854
1.010375
1.025406
1.040385
1.055375
1.070375
1.085406
1.100385
1.115375
1.130406
1.145385
1.160406
1.175354
1.190417
1.205365
1.220396
1.235375
1.250406
1.265375
1.280375
1.295406
1.310375
1.325385
1.340375
1.355406
1.370385
1.385365
1.400406
1.415375
1.430385
1.445375
1.460406
1.475385
1.490365
1.505406
1.520385
1.535406
1.550354
1.565427
1.580365
1.595396
1.610365
1.625406
1.640375
1.655375
1.670406
1.685375
1.700385
1.715365
1.730406
1.745375
1.760375
1.775406
1.790375
1.805375
1.820365
1.835406
1.850385
1.865375
1.880396
1.895385
1.910406
1.925354
1.940417
1.955365
1.970396
1.985365
2.000406
2.015375
2.030375
2.045396
2.060375
2.075375
2.090375
2.105406
2.120365
2.135365
2.150406
2.165375
2.180375
2.195375
2.210406
2.225385
2.240365
2.255396
2.270386
2.285396
2.300354
2.315427
2.330364
2.345396
2.360365
2.375406
2.390375
2.405375
2.420396
2.435364
2.450375
2.465364
2.480396
2.495375
2.510365
2.525406
2.540385
2.555375
2.570364
2.585406
2.600385
2.615365
2.630396
2.645386
2.660396
2.675354
2.690417
2.705354
2.720385
2.735364
2.750396
2.765375
2.780375
2.795396
2.810364
2.825375
2.840364
2.855396
2.870375
2.885365
2.900396
2.915385
2.930375
2.945364
2.960406
2.975375
2.990365
3.005396
3.020375
3.035396
3.050344
3.065417
3.080354
3.095385
3.110364
3.125396
3.140365
3.155365
3.170396
3.185364
3.200375
3.215364
3.230396
3.245375
3.260365
3.275396
3.290375
3.305375
3.320364
3.335396
3.350375
3.365365
3.380396
3.395375
3.410385
3.425344
3.440406
3.455354
3.470385
3.485364
3.500396
3.515365
3.530375
3.545396
3.560364
3.575375
3.590364
3.605396
3.620364
3.635365
3.650406
3.665375
3.680375
3.695364
3.710396
3.725375
3.740365
3.755396
3.770375
3.785396
3.800344
3.815417
3.830354
3.845385
3.860364
3.875396
3.890375
3.905365
3.920396
3.935364
3.950365
3.965364
3.980396
3.995375
4.010365
4.025396
4.040365
4.055375
4.070364
4.085396
4.100375
4.115365
4.130396
4.145375
4.160396
4.175344
4.190406
4.205354
4.220386
4.235354
4.250396
4.265365
4.280365
4.295396
4.310365
4.325375
4.340364
4.355396
4.370365
4.385365
4.400385
4.415375
4.430375
4.445354
4.460396
4.475365
4.490354
4.505385
4.520375
4.535396
4.550344
4.565406
4.580354
4.595386
4.610354
4.625396
4.640365
4.655365
4.670385
4.685365
4.700365
4.715364
4.730396
4.745354
4.760365
4.775396
4.790365
4.805365
4.820354
4.835396
4.850365
4.865365
4.880385
4.895375
4.910385
4.925344
4.940406
4.955344
4.970386
4.985354
5.000396
5.015354
5.030365
5.045385
5.060365
5.075365
5.090364
5.105396
5.120365
5.135365
5.150385
5.165365
5.180365
5.195364
5.210385
5.225375
5.240354
5.255385
5.270375
5.285385
5.300333
5.315406
5.330344
5.345375
5.360354
5.375396
5.390354
5.405354
5.420385
5.435365
5.450365
5.465364
5.480385
5.495354
5.510354
5.525385
5.540365
5.555365
5.570354
5.585385
5.600375
5.615354
5.630385
5.645364
5.660385
5.675333
5.690396
5.705344
5.720375
5.735354
5.750385
5.765354
5.780354
5.795385
5.810354
5.825365
5.840364
5.855385
5.870365
5.885354
5.900396
5.915365
5.930365
5.945354
5.960385
5.975365
5.990354
6.005385
6.020364
6.035385
6.050333
6.065396
6.080344
6.095375
6.110354
6.125385
6.140354
6.155354
6.170385
6.185354
6.200365
6.215364
6.230385
6.245365
6.260354
6.275385
6.290354
6.305365
6.320354
6.335385
6.350365
6.365354
6.380385
6.395364
6.410375
6.425333
6.440396
6.455333
6.470375
6.485354
6.500385
6.515354
6.530354
6.545385
6.560354
6.575354
6.590354
6.605385
6.620354
6.635354
6.650385
6.665365
6.680354
6.695354
6.710385
6.725365
6.740344
6.755385
6.770364
6.785375
6.800333
6.815396
6.830344
6.845375
6.860354
6.875385
6.890365
6.905354
6.920375
6.935354
6.950354
6.965354
6.980385
6.995354
7.010354
7.025385
7.040365
7.055354
7.070343
7.085385
7.100354
7.115354
7.130375
7.145364
7.160375
7.175333
7.190396
7.205333
7.220375
7.235354
7.250385
7.265344
7.280354
7.295375
7.310354
7.325354
7.340354
7.355375
7.370354
7.385344
7.400385
7.415354
7.430354
7.445343
7.460385
7.475354
7.490344
7.505375
7.520364
7.535385
7.550333
7.565396
7.580333
7.595375
7.610343
7.625375
7.640344
7.655344
7.670385
7.685354
7.700354
7.715343
7.730375
7.745344
7.760344
7.775375
7.790354
7.805354
7.820343
7.835385
7.850354
7.865354
7.880375
7.895364
7.910375
7.925323
7.940396
7.955333
7.970375
7.985343
8.000385
8.015354
8.030344
8.045375
8.060354
8.075344
8.090343
8.105375
8.120343
8.135344
8.150375
8.165354
8.180344
8.195354
8.210375
8.225354
8.240334
8.255375
8.270354
8.285375
8.300323
8.315395
8.330343
8.345375
8.360344
8.375375
8.390354
8.405344
8.420375
8.435344
8.450354
8.465343
8.480375
8.495343
8.510344
8.525375
8.540354
8.555354
8.570344
8.585375
8.600354
8.615334
8.630375
8.645354
8.660375
8.675323
8.690385
8.705334
8.720365
8.735344
8.750375
8.765344
8.780344
8.795375
8.810344
8.825354
8.840343
8.855375
8.870343
8.885344
8.900375
8.915354
8.930354
8.945344
8.960375
8.975365
8.990344
9.005375
9.020354
9.035375
9.050323
9.065385
9.080334
9.095365
9.110344
9.125375
9.140344
9.155344
9.170375
9.185344
9.200354
9.215343
9.230365
9.245343
9.260344
9.275375
9.290343
9.305354
9.320344
9.335375
9.350354
9.365334
9.380375
9.395354
9.410364
9.425323
9.440385
9.455333
9.470365
9.485344
9.500375
9.515333
9.530344
9.545364
9.560344
9.575344
9.590343
9.605365
9.620343
9.635344
9.650375
9.665354
9.680344
9.695344
9.710375
9.725354
9.740334
9.755375
9.770344
9.785375
9.800323
9.815385
9.830333
9.845354
9.860344
9.875375
9.890344
9.905344
9.920364
9.935344
9.950344
9.965343
9.980375
9.995343
10.01034
10.02536
10.04035
10.05534
10.07033
10.08536
10.10034
10.11534
10.13037
10.14535
10.16036
10.17531
10.19038
10.20532
10.22036
10.23533
10.25037
10.26533
10.28033
10.29536
10.31033
10.32534
10.34034
10.35536
10.37033
10.38534
10.40036
10.41535
10.43034
10.44533
10.46036
10.47535
10.49033
10.50536
10.52035
10.53536
10.55031
10.56538
10.58032
10.59535
10.61033
10.62536
10.64033
10.65533
10.67036
10.68533
10.70034
10.71533
10.73036
10.74533
10.76033
10.77536
10.79034
10.80534
10.82033
10.83536
10.85034
10.86533
10.88036
10.89534
10.91036
10.92531
10.94038
10.95532
10.97035
10.98533
11.00036
11.01533
11.03033
11.04536
11.06033
11.07534
11.09034
11.10536
11.12033
11.13533
11.15036
11.16533
11.18033
11.19533
11.21036
11.22534
11.24033
11.25536
11.27034
11.28535
11.30031
11.31538
11.33032
11.34535
11.36033
11.37536
11.39033
11.40533
11.42036
11.43533
11.45034
11.46533
11.48036
11.49533
11.51033
11.52536
11.54034
11.55534
11.57033
11.58536
11.60034
11.61532
11.63036
11.64534
11.66036
11.67531
11.69038
11.70532
11.72035
11.73532
11.75036
11.76533
11.78033
11.79536
11.81033
11.82533
11.84033
11.85536
11.87034
11.88533
11.90036
11.91533
11.93034
11.94533
11.96036
11.97534
11.99032
12.00536
12.02034
12.03535
12.05031
12.06538
12.08032
12.09535
12.11032
12.12535
12.14033
12.15533
12.17036
12.18533
12.20033
12.21533
12.23035
12.24533
12.26033
12.27536
12.29033
12.30533
12.32033
12.33536
12.35033
12.36532
12.38035
12.39534
12.41035
12.42531
12.44038
12.45531
12.47035
12.48533
12.50035
12.51532
12.53034
12.54536
12.56033
12.57533
12.59033
12.60536
12.62032
12.63533
12.65036
12.66534
12.68034
12.69532
12.71036
12.72533
12.74032
12.75535
12.77033
12.78535
12.8003
12.81538
12.83031
12.84534
12.86033
12.87536
12.89033
12.90533
12.92035
12.93533
12.95032
12.96533
12.98036
12.99533
13.01032
13.02535
13.04033
13.05533
13.07032
13.08535
13.10033
13.11532
13.13035
13.14533
13.16035
13.1753
13.19038
13.20531
13.22034
13.23532
13.25036
13.26533
13.28032
13.29535
13.31032
13.32533
13.34033
13.35535
13.37032
13.38532
13.40035
13.41533
13.43033
13.44532
13.46035
13.47533
13.49032
13.50535
13.52034
13.53535
13.5503
13.56536
13.58031
13.59534
13.61032
13.62535
13.64032
13.65532
13.67035
13.68532
13.70033
13.71533
13.73035
13.74532
13.76032
13.77535
13.79032
13.80532
13.82032
13.83535
13.85033
13.86532
13.88035
13.89533
13.91035
13.9253
13.94037
13.95531
13.97034
13.98532
14.00035
14.01533
14.03032
14.04535
14.06032
14.07532
14.09033
14.10535
14.12032
14.13532
14.15035
14.16532
14.18032
14.19532
14.21035
14.22533
14.24031
14.25535
14.27033
14.28534
14.3003
14.31537
14.33031
14.34534
14.36032
14.37535
14.39032
14.40532
14.42035
14.43532
14.45033
14.46532
14.48034
14.49532
14.51032
14.52535
14.54033
14.55533
14.57032
14.58535
14.60033
14.61531
14.63035
14.64533
14.66035
14.6753
14.69036
14.70531
14.72034
14.73531
14.75035
14.76532
14.78032
14.79535
14.81032
14.82533
14.84032
14.85534
14.87032
14.88532
14.90034
14.91533
14.93032
14.94531
14.96035
14.97533
14.99031
15.00535
15.02033
15.03535
15.0503
15.06536
15.08031
15.09534
15.11032
15.12534
15.14031
15.15532
15.17034
15.18532
15.20032
15.21532
15.23035
15.24532
15.26032
15.27535
15.29032
15.30532
15.32031
15.33535
15.35032
15.36531
15.38034
15.39533
15.41033
15.4253
15.44036
15.4553
15.47034
15.48531
15.50034
15.51532
15.53032
15.54534
15.56032
15.57532
15.59031
15.60535
15.62031
15.63531
15.65034
15.66533
15.68032
15.69531
15.71034
15.72532
15.74031
15.75534
15.77032
15.78534
15.80029
15.81536
15.8303
15.84533
15.86032
15.87534
15.89031
15.90531
15.92034
15.93531
15.95032
15.96532
15.98034
15.99532
16.01031
16.02534
16.04032
16.05532
16.07031
16.08534
16.10032
16.11531
16.13034
16.14532
16.16033
16.17529
16.19036
16.2053
16.22033
16.23531
16.25034
16.26531
16.28031
16.29534
16.31031
16.32532
16.34032
16.35534
16.37031
16.38531
16.40034
16.41532
16.43032
16.44531
16.46034
16.47532
16.49031
16.50534
16.52032
16.53534
16.55029
16.56536
16.5803
16.59533
16.61031
16.62534
16.64032
16.65531
16.67034
16.68531
16.70031
16.71531
16.73034
16.74531
16.76031
16.77534
16.79031
16.80532
16.82031
16.83534
16.85032
16.86531
16.88034
16.89532
16.91034
16.92529
16.94035
16.9553
16.97033
16.9853
17.00034
17.01532
17.03031
17.04534
17.06031
17.07531
17.09031
17.10533
17.12031
17.13531
17.15034
17.16532
17.18031
17.19531
17.21034
17.22532
17.24031
17.25533
17.27031
17.28533
17.30029
17.31536
17.3303
17.34533
17.3603
17.37534
17.39031
17.40531
17.42034
17.43531
17.45031
17.46531
17.48033
17.49531
17.51031
17.52534
17.54032
17.55532
17.5703
17.58534
17.60032
17.6153
17.63034
17.64532
17.66033
17.67529
17.69035
17.7053
17.72032
17.7353
17.75034
17.7653
17.78031
17.79533
17.81031
17.82531
17.84031
17.85534
17.87032
17.8853
17.90033
17.91531
17.93031
17.9453
17.96034
17.97531
17.9903
18.00534
18.02031
18.03533
18.05028
18.06535
18.08029
18.09532
18.1103
18.12533
18.1403
18.15531
18.17033
18.1853
18.20031
18.21531
18.23034
18.2453
18.2603
18.27533
18.29031
18.30531
18.3203
18.33533
18.35031
18.3653
18.38033
18.39532
18.41032
18.42528
18.44035
18.45529
18.47032
18.4853
18.50033
18.5153
18.53031
18.54533
18.5603
18.5753
18.59031
18.60533
18.6203
18.6353
18.65033
18.66531
18.68031
18.6953
18.71033
18.72531
18.7403
18.75533
18.77031
18.78533
18.80028
18.81535
18.83029
18.84532
18.8603
18.87533
18.8903
18.9053
18.92033
18.9353
18.9503
18.9653
18.98033
18.99531
19.0103
19.02533
19.04031
19.05531
19.0703
19.08533
19.10031
19.1153
19.13033
19.14531
19.16033
19.17528
19.19035
19.20529
19.22032
19.2353
19.25033
19.2653
19.2803
19.29533
19.3103
19.3253
19.34031
19.35533
19.3703
19.3853
19.40033
19.41531
19.4303
19.4453
19.46033
19.47531
19.49029
19.50533
19.5203
19.53533
19.55028
19.56534
19.58029
19.59532
19.6103
19.62533
19.6403
19.6553
19.67032
19.6853
19.7003
19.7153
19.73032
19.7453
19.7603
19.77532
19.7903
19.8053
19.82029
19.83533
19.8503
19.8653
19.88032
19.89531
19.91033
19.92528
19.94034
19.95529
19.97032
19.98529
20.00033
20.0153
20.0303
20.04533
20.0603
20.0753
20.0903
20.10533
20.1203
20.1353
20.15033
20.1653
20.1803
20.1953
20.21033
20.22531
20.24029
20.25533
20.27031
20.28532
20.30028
20.31535
20.33028
20.34532
20.36029
20.37532
20.39029
20.4053
20.42032
20.4353
20.4503
20.4653
20.48032
20.4953
20.51029
20.52532
20.54031
20.5553
20.57029
20.58532
20.60031
20.61529
20.63033
20.64531
20.66032
20.67528
20.69033
20.70528
20.72031
20.73529
20.75033
20.76529
20.7803
20.79532
20.81029
20.8253
20.84029
20.85532
20.8703
20.88529
20.90032
20.9153
20.9303
20.94529
20.96032
20.9753
20.99029
21.00533
21.0203
21.03532
21.05027
21.06534
21.08028
21.09531
21.11029
21.12532
21.14029
21.15529
21.17032
21.18529
21.2003
21.21529
21.23032
21.2453
21.26029
21.27532
21.2903
21.3053
21.32029
21.33532
21.3503
21.36529
21.38032
21.3953
21.41031
21.42527
21.44033
21.45528
21.47031
21.48529
21.50032
21.51529
21.5303
21.54532
21.56029
21.57529
21.59029
21.60532
21.62029
21.63529
21.65032
21.6653
21.6803
21.69529
21.71032
21.7253
21.74028
21.75532
21.7703
21.78532
21.80027
21.81533
21.83028
21.84531
21.86029
21.87532
21.89029
21.90529
21.92032
21.93529
21.94662