File: Testing Code/Flexural Specimen/P-K-P 3 F.csv
0
0.333786
0.2384186
0.2384186
0.2384186
0.2384186
0.2384186
0.2384186
0.2384186
0.333786
0.4291534
0.5722046
0.8106232
1.049042
1.335144
1.764297
2.288818
2.670288
3.194809
3.862381
4.529953
5.00679
5.722046
6.484985
7.152557
7.820129
8.487701
9.346008
10.01358
10.77652
11.53946
12.39777
13.20839
13.97133
14.82964
15.68794
16.59393
17.40456
33.3786
34.09386
34.61838
36.04889
36.19194
37.86087
37.57477
41.05568
43.43987
42.96303
43.67828
43.96439
45.87173
46.53931
44.53659
49.82948
50.54474
54.07333
55.21774
53.64418
52.88124
55.31311
56.98204
59.84306
58.07877
63.41934
61.84578
62.84714
64.65912
65.23132
63.37166
68.61687
70.33348
68.2354
70.81032
69.28444
72.86072
72.95609
75.91248
72.47925
76.00784
75.48332
78.4874
79.15497
77.53372
81.11
82.54051
79.0596
84.78165
84.20944
84.30481
82.77893
87.21352
87.16583
89.83612
90.50369
92.07726
91.9342
92.07726
92.60178
94.31839
90.98053
95.41512
97.03636
94.17534
98.27614
98.18077
96.27342
100.2312
101.4709
104.7134
100.3265
103.9028
105.1903
105.1903
106.7162
108.4328
109.8156
106.7162
106.9546
111.866
109.2911
112.9627
109.4818
112.7243
111.9614
113.2011
114.1548
117.1112
117.1112
118.351
117.1112
118.2079
118.7801
120.4491
118.494
121.4981
121.4027
121.9749
122.3564
122.6902
122.8333
124.3114
122.7379
124.7406
124.4545
127.7447
127.6493
127.5539
130.7011
127.84
132.0362
131.3686
129.7951
130.0335
131.1302
131.464
131.8455
132.3223
133.0853
134.325
135.3741
135.4218
136.8046
136.8046
134.8019
135.994
137.8059
137.1384
137.7106
139.0934
138.6642
142.3359
139.6179
140.2855
143.0988
140.81
142.0498
139.0934
142.0498
142.1928
142.5266
141.0484
142.7174
144.434
144.7201
141.9544
143.2896
145.5307
143.0511
144.434
144.2909
148.6301
143.2896
146.8658
147.6288
146.246
146.6274
150.6329
150.156
148.2964
147.9626
146.5797
147.5334
150.8236
148.5825
149.7746
150.156
149.6315
152.6356
150.8713
149.9176
151.7773
150.9666
151.1574
153.8277
152.1587
152.3018
153.3985
154.4952
154.3522
152.7309
153.78
153.1124
155.8781
153.3508
152.8263
154.829
155.3059
152.6833
154.9244
154.5906
158.0238
154.5906
156.5933
154.1615
153.4462
157.547
156.8317
155.5443
155.7827
154.4952
154.7337
154.829
154.9244
155.1628
155.3059
155.4012
155.6396
155.7827
155.8781
156.1165
156.2119
156.2119
156.4503
156.5933
156.5933
156.6887
156.8317
156.8317
156.9271
157.0225
157.0225
157.1655
157.2609
157.4039
157.4993
157.6424
157.7377
157.7377
157.8808
158.0715
158.1192
158.1192
158.2146
158.3099
158.3099
158.3099
158.453
158.453
158.5484
158.5484
158.5484
158.6914
158.6914
158.7868
158.9298
158.9298
159.0252
159.1682
159.1682
159.2636
159.359
159.359
159.502
159.5974
159.5974
159.7404
159.8358
159.9789
159.9789
160.0742
160.0742
160.2173
160.3127
160.3127
160.4557
160.5511
160.5511
160.6464
160.6464
160.7895
160.8849
160.7895
160.7895
160.8849
160.8849
160.8849
160.8849
160.8849
160.8849
160.8849
160.8849
160.7895
160.7895
160.7895
160.6464
160.6464
160.5511
160.4557
160.4557
160.2173
160.0742
159.9789
159.9789
159.8358
159.5974
159.5974
159.5974
159.502
159.502
159.502
159.359
159.359
159.2636
159.2636
159.2636
159.1682
159.1682
159.0252
159.0252
158.9298
158.9298
158.9298
158.7868
158.9298
158.8821
158.7868
158.9298
158.9298
158.9298
158.9298
158.9298
158.9298
158.9298
158.9298
158.7868
158.9298
158.7868
158.7868
158.7868
158.7391
158.6914
158.6914
158.5484
158.453
158.453
158.3099
158.3099
158.3099
158.2146
158.2146
158.2146
158.2146
158.2146
158.1192
158.1192
157.9762
157.9762
157.8808
157.6424
157.4993
157.4993
157.2609
157.0225
157.0225
156.8317
156.6887
156.5933
156.5933
156.4503
156.3549
156.2119
156.1165
156.1165
155.9258
155.8781
155.7827
155.592
155.4012
155.3059
155.1628
155.0674
154.829
154.7337
154.4952
154.3045
154.1138
153.8754
153.6369
153.4462
153.2555
152.9694
152.8263
152.5879
152.3972
152.1587
151.9203
151.6819
151.4435
151.2051
150.9666
150.7282
150.4898
150.2514
149.9176
149.8222
149.5838
149.3454
149.107
148.8686
148.7255
148.5348
148.3917
148.2964
148.0579
147.9149
147.8195
147.7242
147.5811
147.4857
147.4857
147.4857
147.3427
147.3427
147.3427
147.3427
147.2473
147.2473
147.1043
147.1043
147.1043
147.0089
146.8658
146.8658
146.8658
146.7228
146.6751
146.5321
146.5321
146.4367
146.2936
146.2936
146.1983
146.0552
146.0552
145.9599
145.9599
145.8168
145.7214
145.7214
145.7214
145.5784
145.483
145.483
145.3876
145.3876
145.2446
145.2446
145.2446
145.1492
145.1492
145.1492
145.0062
144.9108
144.9108
144.9108
144.7678
144.7678
144.6724
144.7678
144.6724
144.6724
144.6724
144.7678
144.7678
144.7678
144.7678
144.7678
144.7678
144.7678
144.6724
144.6724
144.6724
144.6724
144.5293
144.5293
144.5293
144.5293
144.5293
144.434
144.5293
144.434
144.5293
144.434
144.434
144.434
144.434
144.3386
144.3386
144.3386
144.1956
144.1956
144.1956
144.1956
144.1956
144.1956
144.1002
144.1956
144.1956
144.1956
144.3386
144.3386
144.3386
144.3386
144.434
144.3386
144.434
144.5293
144.5293
144.5293
144.6724
144.6724
144.6724
144.6724
144.7678
144.7678
144.9108
144.9108
144.9108
145.0062
145.0062
145.1492
145.2446
145.2446
145.3876
145.483
145.5784
145.5784
145.6261
145.7214
145.8168
145.8168
145.9599
145.9599
145.9599
145.9599
146.0552
146.0552
146.0552
146.0552
146.0552
146.0552
146.0552
146.0552
146.0552
146.0552
146.0552
146.1506
146.1983
146.1983
146.2936
146.4367
146.4367
146.5321
146.6751
146.7705
146.8182
146.8658
147.0089
147.0089
147.1043
147.1043
147.1519
147.2473
147.2473
147.2473
147.3427
147.3427
147.3427
147.4857
147.4857
147.5811
147.5811
147.7242
147.8195
147.8195
147.9149
148.0579
148.1533
148.2964
148.3917
148.5348
148.6778
148.7732
148.8686
149.0116
149.107
149.2023
149.3454
149.4408
149.4408
149.5838
149.5838
149.6792
149.6792
149.6792
149.8222
149.8222
149.9176
149.9176
149.9176
150.0607
150.1083
150.156
150.156
150.2514
150.3944
150.4898
150.4898
150.6329
150.7282
150.8713
150.9666
151.1097
151.2051
151.3004
151.4435
151.5388
151.6819
151.7773
151.7773
151.9203
152.0157
152.1587
152.1587
152.2541
152.4925
152.4925
152.5879
152.8263
152.9694
153.017
153.2078
153.3031
153.4462
153.5416
153.78
153.8754
154.0184
154.2568
154.3522
154.5429
154.7337
154.829
155.0674
155.1628
155.3059
155.4012
155.6396
155.7827
155.8781
156.1165
156.2119
156.3549
156.4503
156.5933
156.6887
156.9271
156.9271
157.0225
157.1655
157.2609
157.4039
157.4993
157.6424
157.7377
157.9285
158.1192
158.2146
158.453
158.5484
158.6914
158.9298
159.0252
159.1682
159.2636
159.359
159.5497
159.7404
159.7404
159.8358
159.9789
160.0742
160.2173
160.3127
160.4557
160.5511
160.5511
160.6464
160.7895
160.8849
161.1233
161.2663
161.3617
161.5047
161.6001
161.8385
161.9339
161.9816
162.1723
162.1723
162.3154
162.4107
162.5538
162.6492
162.6492
162.8876
162.9829
163.126
163.2214
163.4598
163.6982
163.8412
164.032
164.175
164.4135
164.5088
164.6519
164.7472
164.7949
164.8903
164.9857
164.9857
165.081
165.2241
165.3194
165.4625
165.5579
165.7009
165.7963
165.9393
166.0347
166.1777
166.2731
166.3685
166.5115
166.6069
166.75
166.8453
166.9884
167.0837
167.2268
167.4175
167.5606
167.5606
167.799
167.8944
168.0374
168.0374
168.2758
168.2758
168.2758
168.2758
168.3712
168.3712
168.3712
168.4666
168.4666
168.6096
168.5143
168.6096
168.705
168.848
168.848
168.9434
169.0865
169.0865
169.3249
169.3249
169.4202
169.5633
169.6587
169.754
169.8971
169.9924
170.1355
170.2309
170.3739
170.4693
170.6123
170.7077
170.8031
170.9461
171.0415
171.1845
171.423
171.423
171.566
171.7567
171.7567
171.8998
171.9952
172.0905
172.2336
172.3289
172.3289
172.5674
172.5674
172.7104
172.9488
173.0442
173.1396
173.378
173.521
173.7595
173.9979
174.1886
174.3317
174.5701
174.8085
174.9039
175.0469
175.1423
175.2853
175.3807
175.4761
175.5238
175.7145
175.7145
175.8575
175.9529
176.096
176.1913
176.3344
176.4297
176.5251
176.6682
176.7635
176.9066
177.0496
177.2404
177.3834
177.4788
177.6218
177.7172
177.8126
177.9556
178.194
178.2894
178.4325
178.5278
178.7186
178.8616
179.0047
179.1
179.2431
179.4815
179.5769
179.7676
179.9107
180.1491
180.2921
180.5305
180.769
180.8643
181.1028
181.2458
181.4365
181.675
181.818
182.0564
182.1518
182.2472
182.4856
182.6286
182.7717
182.9624
183.1055
183.2008
183.3916
183.4393
183.6777
183.773
183.9161
184.0115
184.2499
184.3929
184.4883
184.7267
184.8221
184.9651
185.0605
185.2512
185.442
185.5373
185.6327
185.8711
186.0142
186.1095
186.348
186.5864
186.7294
186.8248
187.0632
187.3016
187.397
187.6354
187.7785
187.9692
188.1123
188.3507
188.446
188.6845
188.8275
188.9229
189.1613
189.2567
189.4951
189.6381
189.7335
189.8766
190.115
190.2103
190.3057
190.4488
190.6395
190.6872
190.7825
191.021
191.2594
191.3548
191.5932
191.8316
191.9746
192.2131
192.4515
192.6899
193.0237
193.119
193.5005
193.6913
193.8343
194.0727
194.3588
194.5496
194.6449
194.931
195.1218
195.3602
195.4556
195.694
195.9324
196.0278
196.2662
196.5046
196.743
196.9814
197.2198
197.4583
197.6967
197.9351
198.1735
198.3643
198.5073
198.7457
198.9365
199.0795
199.3179
199.4133
199.6517
199.7948
200.0332
200.1762
200.51
200.6054
200.7961
201.0822
201.1776
201.416
201.6544
201.7498
201.9882
202.2266
202.3697
202.6081
202.7988
202.9419
203.1803
203.4187
203.6572
203.7525
203.9909
204.2294
204.3247
204.5631
204.8016
204.9446
205.1353
205.3738
205.5168
205.7552
205.9937
206.2321
206.3274
206.6612
206.8043
207.0427
207.2811
207.3765
207.6149
207.8533
207.9487
208.1871
208.4255
208.6639
208.7593
208.9977
209.3792
209.6176
209.8083
210.1898
210.4282
210.6667
210.9528
211.2389
211.4773
211.7157
211.9541
212.1449
212.3833
212.6217
212.7647
213.0032
213.1939
213.3369
213.5754
213.7184
213.9091
214.1476
214.2429
214.4814
214.7198
214.9582
215.1012
215.3397
215.435
215.6734
215.8642
216.0072
216.2457
216.4841
216.7225
216.8655
217.247
217.5331
217.7715
218.1053
218.4868
218.7252
219.0113
219.2974
219.5358
219.7742
220.0127
220.2034
220.5849
220.8233
221.0617
221.3001
221.6339
221.8723
222.1107
222.4445
222.5399
222.7783
223.1598
223.3028
223.4936
223.732
224.0181
224.2565
224.5426
224.781
225.0195
225.2579
225.4963
225.687
226.0685
226.3069
226.5453
226.7838
226.9745
227.2129
227.4513
227.6897
227.9282
228.1666
228.405
228.548
228.7865
228.9772
229.2156
229.454
229.5971
229.7878
230.0262
230.1693
230.4554
230.5984
230.8369
231.0753
231.3137
231.5998
231.8859
232.1243
232.3627
232.6965
232.935
233.1257
233.4118
233.5548
233.7456
233.984
234.127
234.2224
234.4608
234.6992
234.9377
235.1761
235.4145
235.6529
235.9867
236.2251
236.5589
236.9404
237.1311
237.5603
237.8464
238.2278
238.5139
238.8
239.1338
239.4676
239.706
239.9445
240.2306
240.5643
240.6597
240.9935
241.2319
241.375
241.7088
241.9472
242.281
242.5194
242.8532
243.0916
243.4731
243.7115
244.0453
244.3314
244.6175
244.8559
245.0943
245.4281
245.7619
246.048
246.2864
246.5248
246.8586
247.097
247.3354
247.6692
248.003
248.1461
248.3845
248.7183
248.909
249.052
249.2905
249.4812
249.6719
249.8627
250.1011
250.3395
250.5779
250.8163
251.0548
251.3885
251.5316
251.77
252.1038
252.1992
252.4376
252.7237
252.9144
253.1528
253.2482
253.4866
253.6774
253.8681
253.9635
254.1065
254.2973
254.4403
254.5357
254.7741
255.0125
255.1556
255.394
255.4893
255.7278
255.9662
256.0616
256.2046
256.443
256.5384
256.6338
256.7768
256.8722
257.0152
257.1106
257.2537
257.349
257.5874
257.7305
257.7305
257.9212
258.0643
258.1596
258.3027
258.3981
258.5411
258.6841
258.8749
259.1133
259.2087
259.4471
259.5901
259.8286
259.924
260.0193
260.2577
260.4962
260.6392
260.7346
260.8776
261.116
261.3068
261.4498
261.6882
261.9266
262.1651
262.3558
262.5465
262.7373
262.9757
263.2141
263.4525
263.5479
263.7863
263.9771
264.1201
264.3585
264.5016
264.6923
264.9307
265.0261
265.1691
265.4076
265.5506
265.646
265.8844
265.9798
266.2182
266.3612
266.5997
266.695
266.9334
267.0765
267.2672
267.5056
267.6487
267.8871
268.0779
268.2209
268.3163
268.5547
268.6978
268.7931
268.9838
269.0315
269.27
269.3653
269.5084
269.6037
269.7468
269.9375
270.0806
270.2236
270.3667
270.5574
270.7958
270.8912
271.1296
271.368
271.4634
271.6064
271.8448
271.9402
272.1786
272.3217
272.5601
272.6555
272.7509
272.8939
273.1323
273.1323
273.2277
273.4661
273.4661
273.6092
273.7045
273.7999
273.9429
273.9429
273.9429
274.1814
274.2767
274.2767
274.4198
274.5151
274.6582
274.7536
274.8966
275.0873
275.2781
275.3258
275.5165
275.7072
275.9457
276.041
276.1364
276.3748
276.5179
276.6132
276.7563
276.9947
277.1378
277.3285
277.4239
277.6623
277.8053
277.9007
278.1391
278.2822
278.2822
278.4729
278.616
278.7113
278.8544
278.9497
279.1882
279.1882
279.3312
279.5219
279.665
279.665
279.7604
279.9034
279.9988
280.1418
280.1895
280.3802
280.4756
280.6187
280.7141
280.8094
281.0478
281.1909
281.2863
281.5247
281.6677
281.8585
282.0015
282.2399
282.3353
282.5737
282.7167
282.9075
283.0505
283.2889
283.5274
283.6227
283.8611
284.0996
284.1949
284.338
284.4333
284.5764
284.6718
284.8148
284.9102
285.0533
285.1486
285.244
285.387
285.4824
285.7208
285.7208
285.9592
286.1023
286.2454
286.4361
286.5314
286.6745
286.9129
287.0083
287.2467
287.3898
287.5805
287.8189
287.962
288.0573
288.2957
288.4388
288.4388
288.7249
288.7726
288.868
289.1064
289.2494
289.3448
289.4879
289.7263
289.8216