File: Testing Code/Flexural Specimen/PK 2 S.csv
0
0.00184375
0.007635416
0.0155
0.02377083
0.03209375
0.040375
0.04871875
0.05707292
0.06539583
0.07375
0.0820625
0.09039583
0.09871875
0.1070625
0.1154375
0.1237187
0.1320417
0.1403958
0.14875
0.1570833
0.165375
0.1737188
0.1820729
0.1903958
0.19875
0.2070625
0.2153958
0.2237187
0.2320625
0.2404375
0.2487188
0.2570417
0.2653958
0.27375
0.2820833
0.290375
0.2987188
0.3070729
0.3153854
0.32375
0.3320625
0.3403854
0.3487187
0.3570625
0.3654271
0.3737187
0.3820417
0.3903958
0.39875
0.4070833
0.415375
0.4237188
0.4320729
0.4403958
0.44875
0.4570625
0.4653958
0.4737187
0.4820625
0.4904271
0.4987187
0.5070416
0.5153958
0.52375
0.5320833
0.540375
0.5487188
0.5570625
0.5653958
0.57375
0.5820625
0.5903958
0.5987188
0.6070625
0.6154271
0.6237187
0.6320416
0.6403958
0.6487396
0.6570833
0.665375
0.6737188
0.6820729
0.6903854
0.69875
0.7070625
0.7153854
0.7237188
0.7320625
0.7404271
0.7487187
0.7570416
0.7653958
0.77375
0.7820833
0.790375
0.7987188
0.8070729
0.8153854
0.82375
0.8320625
0.8403958
0.8487188
0.8570625
0.8654271
0.8737187
0.8820416
0.8903958
0.89875
0.9070833
0.915375
0.9237188
0.9320625
0.9403958
0.94875
0.9570625
0.9653854
0.9737083
0.9820625
0.9904271
0.9987187
1.007042
1.015385
1.02375
1.032083
1.040375
1.048719
1.057073
1.065385
1.07375
1.082062
1.090396
1.098719
1.107062
1.115438
1.123719
1.132042
1.140385
1.14874
1.157083
1.165375
1.173719
1.182063
1.190385
1.19875
1.207062
1.215385
1.223708
1.232062
1.240427
1.248719
1.257042
1.265396
1.27375
1.282083
1.290375
1.298719
1.307063
1.315385
1.32375
1.332062
1.340396
1.348708
1.357052
1.365427
1.373719
1.382042
1.390396
1.39874
1.407083
1.415375
1.423719
1.432063
1.440385
1.44875
1.457062
1.465385
1.473708
1.482052
1.490427
1.498719
1.507042
1.515396
1.52374
1.532083
1.540375
1.548719
1.557063
1.565385
1.57375
1.582062
1.590385
1.598708
1.607052
1.615427
1.623719
1.632042
1.640385
1.64874
1.657083
1.665375
1.673719
1.682063
1.690385
1.69875
1.707062
1.715385
1.723708
1.732052
1.740427
1.748719
1.757031
1.765396
1.77374
1.782083
1.790375
1.798719
1.807063
1.815375
1.82375
1.832062
1.840385
1.848708
1.857052
1.865427
1.873719
1.882042
1.890385
1.89874
1.907073
1.915375
1.923708
1.932063
1.940385
1.94874
1.957052
1.965385
1.973708
1.982052
1.990427
1.998708
2.007042
2.015385
2.02374
2.032073
2.040375
2.048708
2.057062
2.065375
2.07374
2.082052
2.090385
2.098708
2.107052
2.115427
2.123708
2.132042
2.140385
2.14874
2.157073
2.165375
2.173708
2.182062
2.190375
2.19874
2.207052
2.215375
2.223708
2.232052
2.240427
2.248719
2.257031
2.265385
2.27374
2.282073
2.290365
2.298719
2.307062
2.315375
2.32374
2.332052
2.340385
2.348708
2.357052
2.365417
2.373708
2.382042
2.390396
2.398729
2.407073
2.415365
2.423708
2.432062
2.440385
2.44874
2.457062
2.465385
2.473708
2.482052
2.490417
2.498708
2.507031
2.515385
2.523729
2.532073
2.540365
2.548719
2.557062
2.565385
2.57374
2.582052
2.590385
2.598708
2.607052
2.615427
2.623708
2.632031
2.640385
2.64874
2.657073
2.665365
2.673708
2.682062
2.690385
2.69874
2.707052
2.715385
2.723708
2.732052
2.740417
2.748708
2.757031
2.765396
2.77374
2.782073
2.790365
2.798708
2.807062
2.815375
2.82374
2.832052
2.840385
2.848708
2.857052
2.865427
2.873708
2.882031
2.890385
2.89874
2.907073
2.915365
2.923708
2.932062
2.940375
2.94874
2.957052
2.965385
2.973708
2.982052
2.990417
2.998708
3.007031
3.015385
3.02374
3.032073
3.040365
3.048708
3.057062
3.065375
3.07374
3.082052
3.090385
3.098708
3.107052
3.115417
3.123708
3.132031
3.140385
3.148729
3.157073
3.165365
3.173708
3.182062
3.190375
3.19874
3.207052
3.215385
3.223708
3.232052
3.240427
3.248708
3.257031
3.265385
3.27374
3.282073
3.290365
3.298708
3.307062
3.315375
3.32374
3.332052
3.340385
3.348708
3.357052
3.365417
3.373708
3.382031
3.390385
3.398729
3.407073
3.415365
3.423708
3.432062
3.440385
3.44874
3.457052
3.465375
3.473698
3.482042
3.490417
3.498708
3.507031
3.515385
3.523729
3.532073
3.540365
3.548708
3.557062
3.565385
3.57374
3.582052
3.590385
3.598698
3.607052
3.615417
3.623708
3.632031
3.640385
3.64874
3.657073
3.665365
3.673708
3.682052
3.690385
3.69874
3.707052
3.715375
3.723708
3.732042
3.740417
3.748698
3.757031
3.765385
3.77374
3.782073
3.790365
3.798708
3.807052
3.815385
3.82374
3.832052
3.840385
3.848698
3.857042
3.865417
3.873708
3.882031
3.890385
3.89874
3.907073
3.915365
3.923708
3.932052
3.940375
3.94874
3.957052
3.965375
3.973698
3.982052
3.990417
3.998708
4.007031
4.015385
4.023729
4.032073
4.040365
4.048708
4.057052
4.065375
4.07374
4.082042
4.090375
4.098708
4.107052
4.115417
4.123708
4.132031
4.140375
4.148729
4.157073
4.165365
4.173708
4.182052
4.190375
4.19874
4.207042
4.215385
4.223698
4.232052
4.240417
4.248708
4.257031
4.265375
4.273739
4.282063
4.290365
4.298708
4.307052
4.315375
4.323729
4.332052
4.340385
4.348698
4.357042
4.365417
4.373708
4.382031
4.390385
4.398729
4.407063
4.415354
4.423708
4.432052
4.440375
4.448729
4.457042
4.465375
4.473698
4.482042
4.490417
4.498708
4.507021
4.515375
4.523719
4.532073
4.540365
4.548708
4.557063
4.565375
4.573729
4.582052
4.590375
4.598698
4.607042
4.615417
4.623708
4.632031
4.640375
4.648729
4.657063
4.665365
4.673698
4.682052
4.690375
4.698729
4.707052
4.715375
4.723698
4.732042
4.740406
4.748698
4.757021
4.765385
4.773729
4.782063
4.790354
4.798698
4.807052
4.815364
4.823729
4.832042
4.840375
4.848698
4.857042
4.865417
4.873698
4.882031
4.890385
4.898729
4.907063
4.915365
4.923708
4.932052
4.940375
4.948729
4.957042
4.965375
4.973698
4.982042
4.990406
4.998698
5.007021
5.015375
5.023729
5.032063
5.040354
5.048698
5.057052
5.065375
5.073729
5.082042
5.090375
5.098698
5.107042
5.115417
5.123698
5.132021
5.140375
5.148719
5.157063
5.165354
5.173698
5.182052
5.190364
5.198729
5.207042
5.215375
5.223698
5.232042
5.240417
5.248698
5.257021
5.265375
5.273729
5.282063
5.290354
5.298698
5.307052
5.315364
5.323729
5.332042
5.340375
5.348698
5.357042
5.365406
5.373698
5.382021
5.390385
5.398729
5.407063
5.415354
5.423698
5.432052
5.440375
5.448729
5.457042
5.465375
5.473698
5.482042
5.490417
5.498698
5.507021
5.515375
5.523719
5.532063
5.540354
5.548698
5.557052
5.565375
5.573729
5.582042
5.590375
5.598698
5.607042
5.615406
5.623698
5.632021
5.640375
5.648729
5.657063
5.665354
5.673698
5.682052
5.690375
5.698729
5.707042
5.715364
5.723698
5.732042
5.740406
5.748687
5.757021
5.765385
5.773729
5.782063
5.790354
5.798698
5.807052
5.815364
5.823729
5.832042
5.840375
5.848688
5.857042
5.865406
5.873698
5.882021
5.890375
5.898729
5.907063
5.915354
5.923698
5.932052
5.940375
5.948729
5.957042
5.965375
5.973698
5.982042
5.990406
5.998698
6.007021
6.015375
6.023729
6.032063
6.040354
6.048698
6.057052
6.065375
6.073729
6.082042
6.090364
6.098698
6.107042
6.115406
6.123698
6.132021
6.140375
6.148729
6.157063
6.165354
6.173698
6.182042
6.190364
6.198729
6.207042
6.215364
6.223688
6.232042
6.240406
6.248698
6.257021
6.265375
6.273729
6.282063
6.290354
6.298698
6.307042
6.315364
6.323729
6.332042
6.340375
6.348698
6.357042
6.365406
6.373698
6.382021
6.390375
6.398719
6.407063
6.415354
6.423698
6.432052
6.440375
6.448729
6.457042
6.465375
6.473688
6.482041
6.490406
6.498698
6.507021
6.515375
6.523719
6.532063
6.540354
6.548698
6.557042
6.565364
6.573729
6.582042
6.590364
6.598688
6.607041
6.615406
6.623698
6.632021
6.640365
6.648719
6.657052
6.665354
6.673698
6.682042
6.690364
6.698719
6.707042
6.715364
6.723688
6.732041
6.740406
6.748698
6.757021
6.765375
6.773719
6.782063
6.790354
6.798698
6.807042
6.815364
6.823719
6.832042
6.840364
6.848688
6.857031
6.865406
6.873687
6.88201
6.890375
6.898719
6.907052
6.915354
6.923698
6.932042
6.940364
6.948719
6.957031
6.965364
6.973688
6.982031
6.990406
6.998698
7.007021
7.015375
7.023719
7.032063
7.040354
7.048698
7.057042
7.065364
7.073719
7.082042
7.090364
7.098698
7.107031
7.115406
7.123698
7.132021
7.140365
7.148719
7.157052
7.165354
7.173698
7.182042
7.190354
7.198729
7.207042
7.215364
7.223688
7.232031
7.240406
7.248698
7.25701
7.265375
7.273719
7.282052
7.290344
7.298687
7.307042
7.315354
7.323719
7.332042
7.340354
7.348688
7.357031
7.365406
7.373698
7.38201
7.390375
7.398719
7.407052
7.415344
7.423687
7.432042
7.440364
7.448719
7.457042
7.465364
7.473688
7.482031
7.490406
7.498687
7.50701
7.515365
7.523719
7.532052
7.540344
7.548698
7.557042
7.565364
7.573719
7.582031
7.590364
7.598688
7.607021
7.615406
7.623687
7.63201
7.640365
7.648708
7.657052
7.665344
7.673687
7.682042
7.690364
7.698719
7.707031
7.715364
7.723688
7.732031
7.740396
7.748677
7.75701
7.765375
7.773719
7.782052
7.790354
7.798687
7.807042
7.815364
7.823729
7.832031
7.840364
7.848688
7.857021
7.865396
7.873687
7.88201
7.890365
7.898719
7.907052
7.915344
7.923687
7.932042
7.940354
7.948719
7.957031
7.965364
7.973688
7.982031
7.990396
7.998687
8.00701
8.015365
8.023708
8.032052
8.040343
8.048687
8.057041
8.065354
8.073719
8.082031
8.090364
8.098687
8.107031
8.115396
8.123688
8.13201
8.140365
8.148719
8.157052
8.165343
8.173687
8.182041
8.190354
8.198719
8.207031
8.215364
8.223687
8.232031
8.240406
8.248688
8.25701
8.265365
8.273719
8.282052
8.290343
8.298687
8.307041
8.315354
8.323719
8.332031
8.340354
8.348687
8.357031
8.365396
8.373688
8.38201
8.390365
8.398708
8.407052
8.415343
8.423687
8.432041
8.440365
8.448719
8.457031
8.465354
8.473687
8.482031
8.490396
8.498688
8.50701
8.515365
8.523708
8.532052
8.540343
8.548687
8.557041
8.565365
8.573719
8.582031
8.590364
8.598677
8.607031
8.615396
8.623688
8.63201
8.640365
8.648708
8.657052
8.665343
8.673687
8.682041
8.690354
8.698719
8.707031
8.715354
8.723677
8.732031
8.740396
8.748688
8.75701
8.765365
8.773719
8.782052
8.790343
8.798687
8.807032
8.815365
8.823719
8.832031
8.840364
8.848677
8.857031
8.865396
8.873688
8.88201
8.890365
8.898719
8.907052
8.915343
8.923687
8.932041
8.940354
8.948719
8.957031
8.965354
8.973677
8.982031
8.990396
8.998688
9.00701
9.015365
9.023708
9.032042
9.040343
9.048687
9.057031
9.065354
9.073719
9.082021
9.090364
9.098687
9.107031
9.115396
9.123688
9.13201
9.140365
9.148708
9.157052
9.165343
9.173687
9.182031
9.190354
9.198719
9.207031
9.215364
9.223677
9.232031
9.240396
9.248688
9.25701
9.265354
9.273708
9.282042
9.290343
9.298687
9.307031
9.315344
9.323719
9.332031
9.340354
9.348677
9.357031
9.365396
9.373688
9.38201
9.390365
9.398708
9.407042
9.415333
9.423687
9.432031
9.440365
9.448719
9.457031
9.465364
9.473677
9.48202
9.490396
9.498688
9.50701
9.515365
9.523708
9.532052
9.540343
9.548687
9.557031
9.565354
9.573719
9.582031
9.590354
9.598677
9.60702
9.615396
9.623677
9.63201
9.640354
9.648708
9.657042
9.665343
9.673687
9.682031
9.690354
9.698709
9.707021
9.715343
9.723677
9.73202
9.740396
9.748688
9.757
9.765365
9.773708
9.782042
9.790343
9.798677
9.807031
9.815354
9.823709
9.832031
9.840354
9.848677
9.85702
9.865396
9.873677
9.882
9.890365
9.898708
9.907042
9.915343
9.923677
9.932031
9.940354
9.948709
9.957031
9.965354
9.973677
9.98202
9.990385
9.998677
10.007
10.01536
10.02371
10.03204
10.04033
10.04868
10.05703
10.06535
10.07371
10.08202
10.09034
10.09868
10.10702
10.11539
10.12368
10.132
10.14035
10.14871
10.15704
10.16533
10.17368
10.18203
10.19035
10.19871
10.20702
10.21535
10.22368
10.23202
10.2404
10.24868
10.257
10.26535
10.27371
10.28204
10.29033
10.29868
10.30703
10.31534
10.32371
10.33202
10.34035
10.34868
10.35702
10.36539
10.37368
10.382
10.39035
10.3987
10.40704
10.41533
10.42368
10.43203
10.44035
10.44871
10.45702
10.46535
10.47368
10.48202
10.49039
10.49868
10.507
10.51535
10.52371
10.53204
10.54033
10.54868
10.55703
10.56535
10.57371
10.58202
10.59035
10.59868
10.60702
10.61539
10.62368
10.632
10.64035
10.64871
10.65704
10.66533
10.67368
10.68203
10.69035
10.69871
10.70702
10.71534
10.72368
10.73202
10.74039
10.74867
10.757
10.76535
10.77371
10.78204
10.79033
10.79868
10.80703
10.81534
10.82371
10.83202
10.84035
10.84868
10.85702
10.86539
10.87368
10.882
10.89035
10.89871
10.90704
10.91533
10.92368
10.93203
10.94035
10.94871
10.95702
10.96534
10.97368
10.98202
10.99039
10.99868
11.007
11.01535
11.02371
11.03204
11.04033
11.04868
11.05703
11.06534
11.07371
11.08202
11.09035
11.09868
11.10702
11.11539
11.12368
11.132
11.14035
11.1487
11.15704
11.16533
11.17368
11.18203
11.19034
11.19871
11.20702
11.21535
11.22368
11.23202
11.24039
11.24868
11.257
11.26535
11.27371
11.28204
11.29033
11.29868
11.30703
11.31534
11.32371
11.33202
11.34034
11.34867
11.35702
11.36539
11.37368
11.382
11.39035
11.39871
11.40704
11.41533
11.42368
11.43203
11.44035
11.44871
11.45702
11.46535
11.47367
11.48201
11.49039
11.49867
11.507
11.51535
11.5237
11.53204
11.54033
11.54868
11.55702
11.56535
11.57371
11.58202
11.59035
11.59867
11.60702
11.61539
11.62368
11.632
11.64035
11.64871
11.65704
11.66533
11.67368
11.68202
11.69034
11.69871
11.70702
11.71534
11.72368
11.73201
11.74039
11.74867
11.757
11.76535
11.7737
11.78203
11.79033
11.79868
11.80702
11.81534
11.82371
11.83202
11.84034
11.84867
11.85701
11.86539
11.87368
11.882
11.89034
11.89871
11.90704
11.91533
11.92368
11.93202
11.94034
11.94871
11.95702
11.96534
11.97367
11.98201
11.99039
11.99868
12.007
12.01535
12.0237
12.03203
12.04033
12.04867
12.05702
12.06534
12.07371
12.08201
12.09034
12.09867
12.10701
12.11539
12.12368
12.13199
12.14035
12.1487
12.15703
12.16533
12.17368
12.18202
12.19034
12.19845