File: Testing Code/Flexural Specimen/PK 2 F.csv
0
0.333786
0.333786
0.333786
0.333786
0.2384186
0.2384186
0.333786
0.333786
0.333786
0.333786
0.333786
0.333786
0.4768372
0.4768372
0.5722046
0.667572
16.1171
17.11845
19.69337
20.45631
20.02716
20.504
21.17157
19.97948
22.88818
25.32005
23.65112
24.3187
25.32005
27.99034
28.22876
27.2274
29.03938
30.46989
30.56526
31.70967
34.57069
32.99713
34.09386
35.28595
36.85951
37.28867
36.9072
37.57477
38.48076
39.57748
39.43443
42.10472
42.91534
40.43579
41.96167
42.39082
45.25185
43.9167
46.15784
45.9671
49.06654
45.58563
47.87445
48.82813
51.92757
50.97389
49.92485
49.59106
51.25999
54.35944
53.97797
54.59785
55.6469
56.40984
57.31583
58.69865
58.41255
57.93571
59.08012
61.36894
61.55968
61.70273
64.7068
62.70409
64.75449
65.46974
65.42206
65.51743
67.71088
66.13731
66.56647
69.90433
69.04602
70.47653
69.04602
72.14546
71.04874
73.28987
71.85936
74.10049
74.72038
75.05417
77.0092
79.01192
77.39067
79.67949
79.20265
80.29938
79.39339
81.96831
84.78165
82.68356
83.4465
85.35385
85.87837
86.73668
87.49962
88.07182
89.40697
91.21895
89.40697
89.78844
90.78979
91.55273
90.64674
94.46144
94.07997
92.60178
95.65353
96.70258
94.27071
98.89603
96.32111
98.18077
99.8497
100.0404
101.3756
102.8061
104.8088
100.6603
102.2339
103.569
104.7611
106.9069
108.099
106.2393
107.8606
107.3837
107.0023
111.0554
107.8606
109.4341
110.3878
111.3892
112.1044
113.1535
113.0581
110.96
114.727
114.727
115.0131
116.7774
116.4436
118.6848
118.4464
118.6848
119.4477
120.8305
120.4967
122.1657
121.5458
123.0717
122.7856
122.3087
124.3114
126.1234
124.5022
125.1221
125.8373
126.791
126.6956
125.8373
128.6507
130.3673
130.6057
129.1752
130.558
130.7011
132.6561
134.0866
133.0853
131.8932
133.1806
136.4231
136.7092
136.7092
137.4722
137.3291
135.8032
136.3277
138.4258
140.7146
139.5226
140.6193
141.3822
144.1956
141.4776
140.667
144.1956
144.2432
143.0511
143.5757
146.1506
144.9108
146.7705
147.0566
148.1056
147.5811
146.4844
147.9149
149.7269
149.5361
150.8713
149.5361
151.2051
151.3958
150.4421
151.6819
154.2091
152.2064
154.9721
153.78
154.7337
155.735
155.9734
157.7854
158.5007
158.9298
160.0266
158.6914
159.9789
162.077
160.8849
161.8862
159.8835
160.265
164.1273
162.8876
163.269
166.1777
163.5075
162.6492
164.8903
165.081
166.3685
167.2268
167.799
167.2268
168.9434
169.4202
168.0374
169.8494
171.5183
172.4243
171.1845
171.6137
172.9965
173.1873
172.6151
172.8058
173.9025
173.7595
175.19
174.9039
174.9516
174.5701
179.1954
175.4761
177.145
177.7172
178.8616
178.9093
179.6722
179.4338
180.0537
178.3848
180.006
179.9583
178.6709
181.7703
179.0047
182.5333
183.2962
184.9174
185.8234
181.6273
184.3929
185.9188
184.0591
186.3956
185.4897
189.1613
187.7785
187.9215
188.303
187.7785
187.8738
188.2076
189.0659
191.3071
192.4515
191.8793
193.9297
192.4515
190.0196
194.931
192.976
194.931
193.9774
194.7403
195.3125
192.07
194.3588
196.9814
196.7907
194.4065
198.555
199.1749
198.4119
197.3152
199.461
197.7921
199.9378
201.0822
200.9392
199.2702
198.5073
201.416
202.6081
200.9869
200.5577
203.8479
201.6544
204.277
202.1313
204.6108
204.5155
207.0904
206.6612
205.4214
207.4242
204.9923
207.8533
209.5222
207.4242
207.7103
208.2825
208.6163
211.8587
211.3819
211.3342
211.7634
208.4732
211.9541
213.1462
212.3833
213.0508
212.6694
213.4323
213.8615
213.5277
213.0508
212.3356
213.0985
215.7211
213.9091
218.1053
215.6734
217.1516
214.8628
216.2457
216.4841
219.1544
219.7266
217.1993
221.92
221.1094
219.2497
220.0127
220.7279
221.5862
221.4432
220.3465
222.0154
219.9173
223.3505
222.5399
224.781
223.0167
224.7334
224.8764
225.1625
226.4023
227.499
226.0208
228.1666
223.7797
227.3083
229.6925
227.1652
226.593
228.2143
227.7374
227.356
228.6911
228.3096
228.5957
228.405
230.2647
232.6488
228.6434
228.7388
232.4581
229.9309
233.5072
230.8369
234.0317
231.0753
233.7456
233.2687
233.6025
234.0794
234.6992
236.2251
235.5099
234.7469
235.3668
236.7973
236.1298
237.1788
237.6556
237.5603
240.612
239.9445
235.7483
236.3682
238.5139
240.0398
239.0385
238.8
239.3246
241.7564
238.9431
241.375
239.3246
240.5643
240.0398
241.8995
241.518
241.375
241.0889
243.5684
244.8559
241.1842
243.9499
243.9022
244.3314
242.1379
246.191
243.6161
243.0916
245.9526
247.0493
246.954
247.6215
247.1924
246.0957
243.9499
247.4308
248.8136
249.6719
246.6202
245.3804
249.052
252.9621
247.5739
249.0997
250.1488
252.0084
251.3409
251.627
250.0057
253.2482
250.9594
250.864
251.3409
252.1515
251.4839
251.5316
252.3899
252.676
253.8204
252.676
254.5834
254.1542
257.0629
255.5847
254.1542
256.5861
256.6338
253.1052
256.3
257.3967
255.0125
257.1583
257.1583
257.4921
258.3504
257.2537
257.9689
256.443
258.255
259.3517
260.8776
259.0656
257.8735
257.0152
260.3531
259.4471
260.067
258.9703
257.8259
259.924
259.161
258.3027
261.2114
261.9266
261.2591
262.6419
263.2141
260.3531
263.3572
261.4498
264.2155
266.0275
261.7359
265.9798
262.8326
263.9771
264.5493
262.3081
265.3122
264.2632
265.1691
266.5043
267.8871
266.552
265.5029
263.6909
265.2168
263.9294
266.5043
266.5043
266.0751
266.3612
268.507
265.789
267.0288
268.9362
267.6487
268.1732
269.3653
269.0315
267.0765
267.6964
269.3176
269.0315
269.8422
271.7495
270.6051
269.7468
271.1773
271.0819
271.7018
270.319
267.6964
271.1296
268.8408
271.9402
269.8422
269.4607
271.0342
271.368
269.8898
270.7481
268.5547
272.0833
271.225
271.2726
271.6064
272.2263
271.1773
275.6119
271.7972
269.9852
273.2754
272.0356
275.0397
272.7509
274.4198
271.7495
274.9443
274.8966
274.8013
273.2754
272.7985
273.5615
274.4198
274.5151
273.4184
273.4184
274.8966
275.3735
276.4225
275.5165
274.6582
278.5683
275.4688
277.0424
275.9457
274.992
277.3285
276.3748
276.3748
277.6623
276.6609
278.5683
279.1405
277.7576
276.947
275.7072
277.71
279.1882
277.1854
279.3789
277.9484
274.2767
277.3762
277.2808
278.6636
278.3775
279.2358
279.3312
280.3326
277.4239
277.71
281.3339
277.0424
283.1936
282.4307
278.5206
278.759
283.3843
281.0478
282.3353
280.7141
282.1922
284.0042
284.5764
281.9538
282.3353
283.1936
283.0505
284.9579
284.0996
283.432
283.6227
281.1909
284.338
284.481
278.8067
281.7154
284.2426
283.6227
286.4838
282.6214
283.9565
282.383
285.4347
282.0969
282.5737
282.4783
285.6732
286.0069
285.4347
282.1445
282.2399
284.7195
282.9552
285.1963
287.056
282.2399
282.9552
283.2889
283.3843
283.3843
283.5274
283.6227
283.6227
283.6227
283.6227
283.7658
283.7658
283.8611
283.8611
283.8611
283.8611
284.0042
284.0042
284.0996
284.0996
284.2426
284.2426
284.338
284.4333
284.4333
284.5764
284.6718
284.8148
284.9102
284.9579
285.0533
285.1486
285.2917
285.387
285.4824
285.6255
285.7208
285.8639
285.9592
286.1023
286.1977
286.3407
286.4361
286.5791
286.6745
286.7699
286.9129
287.0083
287.1513
287.2467
287.3898
287.4851
287.5805
287.7235
287.8189
287.962
288.0573
288.2004
288.2004
288.2957
288.4388
288.5342
288.6772
288.7726
288.7726
288.9156
289.011
289.0587
289.1541
289.2494
289.3448
289.4879
289.5832
289.6309
289.7263
289.8216
289.9647
290.0601
290.1554
290.2985
290.3938
290.4415
290.5369
290.6323
290.7753
290.8707
290.8707
291.0137
291.0614
291.1091
291.1091
291.2045
291.2045
291.2045
291.3475
291.3475
291.3475
291.3475
291.3475
291.3475
291.3475
291.4429
291.4429
291.4429
291.4429
291.4429
291.4429
291.4429
291.5859
291.5859
291.5859
291.5859
291.5859
291.5859
291.6813
291.6813
291.5859
291.5859
291.6813
291.5859
291.5859
291.5859
291.5859
291.4429
291.4429
291.4429
291.3475
291.3475
291.2045
291.2045
291.1091
291.1091
291.0137
290.8707
290.8707
290.7753
290.6323
290.6323
290.5369
290.3938
290.3938
290.2985
290.1554
290.0601
289.9647
289.8216
289.8216
289.7263
289.4879
289.3448
289.2494
289.1064
289.011
288.9156
288.6772
288.5342
288.4388
288.248
288.0573
287.962
287.8189
287.7235
287.6282
287.4374
287.2467
287.199
287.1513
287.0083
286.9129
286.9129
286.7699
286.7699
286.6745
286.6745
286.6745
286.5791
286.5791
286.5791
286.5791
286.5791
286.5791
286.5791
286.5791
286.5791
286.5791
286.5791
286.4361
286.4361
286.4361
286.4361
286.4361
286.4361
286.3407
286.3407
286.3407
286.3407
286.1977
286.1977
286.1977
286.1023
286.1023
286.1023
285.9592
285.9592
285.9592
285.9592
285.9592
285.8639
285.8639
285.8639
285.8639
285.8639
285.8639
285.8639
285.8639
285.8639
285.8639
285.8639
285.8639
285.8639
285.8639
285.8639
285.9592
285.9592
285.9592
285.9592
285.9592
285.9592
285.9592
285.9592
285.9592
285.9592
285.9592
285.9592
285.9592
285.9592
285.8639
285.8639
285.8639
285.8639
285.7208
285.7208
285.7208
285.6255
285.6255
285.6255
285.4824
285.387
285.387
285.387
285.2917
285.2917
285.1486
285.1486
285.1486
285.1486
285.0533
284.9102
284.9579
285.0533
285.0533
284.9102
284.9102
284.9102
284.9102
284.9102
284.9102
284.9102
284.8148
284.8148
284.6718
284.6718
284.6718
284.6718
284.5764
284.4333
284.338
284.338
284.2426
284.0996
284.0519
283.9088
283.8135
283.7658
283.6227
283.5274
283.3843
283.2889
283.1936
283.0505
282.9552
282.8121
282.7167
282.5737
282.4783
282.3353
282.0969
282.0015
281.8108
281.6677
265.789
264.2632
262.9757
262.785
262.6419
262.7373
264.2632
263.5479
263.834
264.2632
260.8299
260.21
263.2141
263.5956
262.785
261.6406
260.973
261.0207
261.116
261.3544
262.2128
261.6882
258.6841
260.6392
260.0193
260.5438
258.7318
259.9716
258.6841
258.255
259.8763
259.7332
259.6855
260.6869
259.8763
259.304
261.4498
258.255
258.1596
258.0643
255.4417
258.6841
256.7291
259.6378
257.5874
257.349
256.443
257.7305
256.7768
256.9675
255.394
257.7782
255.5847
252.9144
254.631
255.9185
257.6351
255.7278
255.6801
257.6351
255.5847
254.1542
257.349
258.4457
254.8218
260.21
257.6828
257.5397
255.9185
256.2046
255.6324
256.2046
255.5847
257.7782
256.4907
256.4907
255.4417
256.8722
256.8245
256.7768
256.7768
256.6815
256.6815
256.5861
256.5384
256.5384
256.5384
256.5384
256.443
256.443
256.3
256.3
256.3
256.2046
256.2046
256.0616
255.9662
255.8231
255.7278
255.6324
255.4893
255.2509
255.0602
254.9171
254.6787
254.4403
254.2496
254.0112
253.7251
253.4866
253.2959
253.0098
252.8191
252.5806
252.2945
252.1038
251.8177
251.5316
251.2932
251.1501
250.9594
250.8163
250.5779
250.3872
250.2441
250.1011
250.0057
249.9104
249.7673
249.6719
249.4335
249.3382
249.2905
249.1951
249.052
248.9567
248.9567
248.8613
248.7183
248.6229
248.6229
248.4798
248.4798
248.3845
248.2414
248.2414
248.1461
248.1461
248.003
248.003
247.9076
247.9076
247.7646
247.7646
247.6692
247.6692
247.5739
247.4308
247.4308
247.4308
247.3354
247.1924
247.1924
247.097
247.0493
246.954
246.8586
246.8586
246.7632
246.7155
246.6202
246.6202
246.5248
246.5248
246.3818
246.3818
246.2864
246.1433
246.1433
246.048
245.9049
245.9049
245.8096
245.6665
245.5711
245.4281
245.4281
245.3327
245.3327
245.2374
245.0943
244.9989
244.9036
244.8559
244.8559
244.8082
244.7605
244.7605
244.6175
244.6175
244.5698
244.6175
244.5221
244.5221
244.5221
244.379
244.379
244.379
244.379
244.379
244.379
244.2837
244.2837
244.1883
244.1883
244.1883
244.0453
244.0453
243.9499
243.8068
243.8068
243.7115
243.5684
243.5684
243.4731
243.4254
243.2346
243.2346
243.1393
243.1393
242.9962
242.9962
242.9008
242.7578
242.7578
242.7578
242.6624
242.6624
242.5194
242.5194
242.5194
242.5194
242.5194
242.424
242.424
242.424
242.424
242.424
242.424
242.281
242.281
242.281
242.281
242.281
242.281
242.281
242.1856
242.1856
242.1856
242.0425
242.0425
241.9472
241.9472
241.9472
241.8518
241.8518
241.7088
241.6134
241.6134
241.6134
241.4703
241.4703
241.375
241.375
241.2319
241.2319
241.1366
241.1366
241.0412
240.9935
240.9935
240.8981
240.8981
240.8028
240.8028
240.6597
240.6597
240.6597
240.5643
240.5643
240.4213
240.3259
240.3259
240.3259
240.3259
240.1829
240.0875
239.9445
239.9445
239.8491
239.8491
239.8491
239.6107
239.6107
239.5153
239.3723
239.2769
239.2769
239.1338
239.1338
239.0385
238.8954
238.8
238.657
238.657
238.5616
238.5616
238.3232
238.2278
238.2278
238.0848
238.0848
238.0848
237.9894
237.8464
237.751
237.751
237.751
237.608
237.5603
237.5126
237.4172
237.2742
237.2742
237.2742
237.1788
237.0358
236.9404
236.7496
236.5589
236.4635
236.2251
216.8655
216.7225
217.5808
213.7184
214.0045
210.5236
213.48
212.4786
210.4759
210.9528
208.3778
208.3778
210.6667
204.7539
207.1381
206.089
203.0373
201.3206
200.6531
202.0836
199.0795
201.416
196.5523
197.4583
194.6449
192.2607
189.9719
180.912
177.7172
173.521
173.8071
171.6137
171.3753
171.423
169.0865
168.5143
166.7976
162.5061
164.5088
162.5061
157.547
159.0252
156.9271
157.0702
155.6396
154.9721
152.7309
152.6356
152.5879
148.5348
147.8195
148.1533
147.5334
147.8195
143.4326
142.8127
143.0035
144.577
142.0021
141.3345
142.4789
141.6206
141.1915
139.9517
141.8591
139.4272
139.6656
139.9994
141.1915
138.5212
136.4231
136.3277
136.3754
136.3754
135.1357
135.7555
135.3741
131.5117
137.5675
137.4722
135.0403
136.1847
135.5171
134.6588
133.5144
136.1847
133.0853
134.8972
134.3727
133.3714
134.7542
132.4654
136.5662
136.0416
135.0403
131.5117
133.3714
134.2297
131.7024
131.7024
131.3686
134.182
133.4667
134.2297
134.2773
132.7038
132.4177
134.2773
133.2283
130.1765
131.9885
131.7501
132.1793
132.4654
133.1806
130.5103
132.9422
132.5607
133.3237
130.4626
129.9858
132.8468
131.464
132.3223
133.6575
131.2733