File: Testing Code/Tensile Specimen/K-P-K 1 FT.csv
0
-1.478195
-1.478195
25.65384
39.95895
47.15919
60.51064
68.85529
77.10457
88.40561
98.22845
106.287
111.2461
123.5962
130.1765
138.9503
145.7214
151.825
159.2159
166.6069
173.9979
180.6736
185.585
192.8806
197.9351
207.6149
212.0018
218.2007
223.6843
230.8846
235.3191
237.2742
243.1393
251.5793
257.349
259.0179
268.7454
272.7032
275.3735
281.477
286.7222
290.1554
295.5914
300.6935
302.4578
306.8924
310.3256
316.143
318.6226
320.8637
325.5367
330.4482
333.0707
336.4563
341.5585
345.3732
347.3759
350.8091
356.8173
359.9644
360.0121
366.6878
371.0747
371.933
379.467
381.5174
385.1891
386.6672
390.625
393.1522
397.9206
399.5895
401.2585
406.5991
408.6494
410.8429
415.1344
419.2829
420.1412
419.1876
424.6712
423.8129
430.6793
432.7297
431.8714
434.0649
436.449
438.118
441.1697
442.791
444.1738
445.8427
448.7515
449.5144
450.325
450.325
451.231
457.5729
456.0471
457.8113
458.5266
458.2405
462.6751
462.8658
464.201
467.5865
466.7282
467.062
470.1138
472.4026
473.8808
476.5034
477.9339
475.1205
482.7499
483.5605
488.6151
488.5674
490.6177
490.6654
491.5714
495.1
495.2431
495.9583
500.7267
502.7294
503.3493
507.2594
503.4447
510.7403
510.931
510.1681
512.2662
515.3656
514.6027
516.3669
519.4664
520.9923
521.7075
521.4214
523.8533
525.9037
525.713
527.6203
532.1026
530.7675
531.5781
536.1557
533.6285
534.6775
537.4432
540.0658
540.4473
541.2102
544.0235
544.405
545.9785
547.4091
547.4567
548.6011
548.5058
549.6979
549.9363
553.6556
554.2278
556.4213
554.9908
556.5167
554.2278
560.5221
561.285
563.097
562.954
562.6202
566.3872
566.9117
566.4825
568.3422
572.1093
571.537
572.3477
570.0588
572.5384
575.4471
576.8299
575.0656
578.3081
577.7359
582.1228
581.8367
583.1241
583.4579
586.8912
588.274
586.9388
589.3707
590.229
590.4675
593.7576
591.8026
593.6146
594.1868
596.2372
596.6187
597.1909
598.0969
598.7644
600.2903
600.338
603.1513
605.5355
604.2957
605.0587
607.9674
609.1118
608.4919
608.8257
611.4483
612.3542
614.4524
615.8829
614.7861
615.0245
616.7889
620.1267
619.03
619.173
621.3665
624.4183
624.2752
624.4659
623.8461
626.6594
627.0886
627.5654
630.6171
628.8052
631.0463
631.8569
633.0013
633.1921
634.5749
634.1934
635.3855
636.3868
639.7247
642.4427
637.7697
640.9168
642.7765
643.3487
644.3024
644.4931
646.925
646.4005
647.8787
646.7819
648.7847
649.8813
651.8364
652.647
654.1252
652.9808
655.2697
656.1756
655.6988
657.9876
657.2247
657.6538
660.181
662.8036
659.7996
662.7083
664.0435
662.0407
663.5189
665.8554
667.2859
668.335
668.1919
666.8568
670.7668
669.5747
670.147
671.3391
671.4821
673.9617
672.0543
677.681
675.0583
679.9698
676.4889
677.1088
676.9657
677.2995
679.1592
683.5938
683.3553
684.8335
683.9276
683.2599
683.5938
684.5474
686.7886
686.0733
689.5542
686.3117
690.5555
689.3635
692.2722
691.4615
693.4166
694.5133
694.2272
695.5146
694.6564
698.7095
697.5174
699.1387
698.6141
699.5201
700.0446
699.2817
701.5705
704.3362
704.0024
706.8157
707.3402
704.1931
702.6196
707.3402
706.2912
707.2925
708.6277
706.7203
707.7694
710.2013
712.204
708.437
713.2053
713.4437
713.3007
715.1127
716.3048
714.8266
715.8279
719.5472
716.7816
716.114
716.9724
717.3538
718.5936
721.5977
717.4015
723.1235
720.1195
720.4056
722.4083
725.9369
723.4097
724.8401
725.4124
727.2244
724.8401
726.986
727.6058
728.6072
730.7529
729.5609
729.8469
730.4192
731.4205
732.0881
734.7107
732.2311
736.9518
735.426
736.7611
737.381
737.524
736.0935
737.8578
739.2407
742.3878
740.5758
744.8196
737.7625
744.1521
743.0077
745.1057
742.96
743.103
748.2052
748.4913
744.3905
746.9654
749.1112
748.2529
748.9681
750.7801
751.0186
752.449
749.0158
752.5444
754.8333
751.8768
756.7406
753.4504
753.5458
758.3618
757.0743
759.2201
759.5062
758.791
756.6452
757.4081
761.5089
763.3209
761.6997
765.2759
763.9408
764.513
766.7542
762.7964
766.1819
766.0865
765.6574
768.5184
768.0416
769.9012
767.7555
773.3345
770.998
771.5225
771.8086
771.2841
774.8127
773.6683
775.2418
775.528
776.1478
776.5293
779.5811
778.1982
775.1942
779.3903
780.7732
779.5334
781.4884
783.2527
784.3971
783.1573
784.111
784.3971
783.3481
786.9244
787.0197
787.3058
786.8767
792.4557
790.5006
790.9298
787.2104
788.4979
789.8331
792.7894
793.5524
792.6941
793.7908
793.7908
794.8876
793.4094
793.3617
797.2717
797.3671
796.7472
798.5592
797.7009
800.5142
801.1818
798.0347
801.4202
801.7063
803.6136
802.3739
804.7104
804.2813
804.9965
805.8071
808.6682
806.427
806.9038
808.382
808.6205
809.7649
811.8152
812.4828
811.9583
812.9597
816.2975
814.3425
813.5319
813.0073
815.3439
814.867
816.0591
818.3956
817.585
820.1599
820.2552
820.8275
820.0168
821.6858
820.2552
820.5891
822.1626
823.6408
822.8302
826.3111
823.164
826.8356
827.6462
830.3643
828.1708
831.1749
828.9814
830.3165
829.649
831.0795
830.6503
834.9896
833.8452
833.7498
835.371
835.4664
834.2743
836.5631
836.42
839.4718
836.3247
839.9963
836.134
838.4705
838.8519
841.1884
839.6149
841.5222
842.3805
841.6176
843.6203
845.623
844.7647
846.4813
846.6244
846.4337
847.0059
846.4813
847.1966
850.0576
846.4813
851.3451
848.0072
850.6775
851.1066
852.6325
849.8192
852.108
853.7292
850.2484
852.4895
855.6843
855.5413
853.7769
854.3491
854.826
855.4935
859.1652
860.4526
859.499
858.4976
859.2606
860.6434
859.4513
860.3096
861.2156
862.4077
861.9308
861.8354
866.127
864.3151
863.0276
865.4117
866.2224
865.3641
866.4608
866.7469
869.3218
868.3204
869.9894
869.2264
870.8
870.7047
871.5153
871.2292
870.9907
874.8531
873.8995
873.7564
874.1379
872.8981
875.1392
875.8068
875.473
876.4267
878.2386
879.6692
879.6692
877.5234
880.7659
879.0493
880.8136
881.052
882.6733
880.9089
882.4348
881.8149
884.5806
883.2932
880.9567
884.4852
887.4417
886.4403
886.9171
888.3477
887.1078
889.2059
886.8694
888.0615
888.3477
890.3503
888.3953
890.7795
889.6351
889.349
892.0193
892.1146
892.9253
893.8312
894.6418
894.2604
893.7359
895.6909
893.9743
895.4048
897.4075
896.2155
900.0778
898.1228
898.1705
899.6964
899.1718
900.1255
901.556
902.1759
900.6977
901.556
901.7468
901.8898
900.6977
903.9402
907.2303
906.0859
903.7018
906.0859
904.7985
906.6582
906.8012
908.041
908.7086
908.1364
911.665
909.7576
911.808
914.4306
911.2835
913.5723
910.902
914.3829
911.5219
914.4306
913.4769
917.9115
917.9592
916.2903
916.5287
916.8625
920.6295
918.8175
918.293
920.4388
919.8666
921.8216
919.6758
923.1091
924.3965
924.4442
923.7289
923.5382
926.2085
925.3502
927.639
927.2576
925.4932
928.0682
930.9292
927.9728
930.5477
927.7344
929.8801
929.6894
932.6458
932.2643
933.3134
933.1703
933.8856
936.5558
937.0804
938.797
935.5545
935.9836
936.079
937.7957
937.0804
937.9387
938.3679
941.658
941.4673
942.7548
942.564
943.4223
944.376
943.327
942.8978
946.6171
944.519
946.2833
944.8528
947.8092
949.3828
950.7179
947.8569
951.0517
951.5762
951.767
951.5762
951.4808
952.3868
954.4849
953.3405
954.1035
954.8664
955.3433
955.3909
952.4822
957.489
955.6293
957.7751
956.2015
960.0162
959.3964
959.158
958.4904
962.9727
961.1606
961.0176
963.5449
962.4005
963.4495
963.4972
965.929
967.4549
966.835
965.3091
966.2628
968.9331
972.8431
969.5053
970.7451
968.0271
969.9344
972.6047
973.2723
973.7969
972.3663
972.2233
974.6075
974.9413
975.9426
975.7996
979.1375
978.5652
980.5203
980.9971
978.2791
981.6169
980.9971
981.7123
982.5707
984.0966
983.429
981.3785
982.1892
984.1919
980.3772
980.711
981.1878
981.5216
981.9984
982.4753
982.9521
983.5243
984.0966
984.6687
985.2886
985.8608
986.433
987.0052
987.4821
988.0543
988.5311
989.1033
989.5801
990.2001
990.7722
991.4398
992.0597
992.6319
993.3472
993.9194
994.4916
995.1115
995.6837
996.2559
996.8281
997.3049
997.8771
998.497
999.0692
999.7845
1000.357
1001.072
1001.501
1002.169
1002.646
1003.265
1003.742
1004.314
1004.887
1005.411
1006.079
1006.603
1007.271
1007.843
1008.511
1009.13
1009.75
1010.418
1010.99
1011.515
1012.039
1012.564
1013.088
1013.565
1014.042
1014.614
1014.948
1015.472
1015.902
1016.378
1016.855
1017.189
1017.761
1018.238
1018.81
1019.287
1019.859
1020.336
1020.956
1021.528
1022.196
1022.816
1023.531
1024.103
1024.771
1025.295
1025.82
1026.44
1026.869
1027.346
1027.918
1028.395
1029.015
1029.444
1030.064
1030.493
1031.113
1031.589
1031.971
1032.4
1032.972
1033.449
1034.021
1034.498
1035.118
1035.69
1036.262
1036.835
1037.359
1037.884
1038.361
1038.933
1039.457
1040.125
1040.697
1041.365
1041.985
1042.652
1043.272
1043.844
1044.416
1044.893
1045.418
1045.942
1046.419
1046.896
1047.373
1047.802
1048.422
1048.851
1049.328
1049.709
1050.043
1050.281
1050.52
1050.997
1051.331
1051.807
1052.284
1052.713
1053.19
1053.715
1054.144
1054.716
1055.193
1055.765
1056.242
1056.814
1057.386
1058.006
1058.578
1059.151
1059.675
1060.295
1060.82
1061.392
1061.916
1062.298
1062.775
1063.156
1063.49
1063.776
1064.11
1064.444
1064.777
1065.111
1065.493
1065.826
1066.065
1066.399
1066.542
1066.78
1066.971
1067.209
1067.448
1067.829
1068.068
1068.401
1068.735
1069.117
1069.45
1069.784
1070.166
1070.595
1070.976
1071.453
1071.882
1072.359
1072.884
1073.408
1073.885
1074.362
1074.696
1075.172
1075.506
1075.888
1076.269
1076.603
1077.032
1077.509
1077.89
1078.32
1078.796
1079.13
1079.512
1079.845
1080.227
1080.418
1080.799
1081.085
1081.467
1081.943
1082.563
1082.993
1083.612
1084.042
1084.518
1084.995
1085.472
1085.806
1086.283
1086.616
1087.236
1087.57
1088.047
1088.619
1088.953
1089.573
1090.002
1090.479
1090.956
1091.433
1091.909
1092.386
1092.863
1093.388
1093.96
1094.484
1095.057
1095.533
1096.058
1096.582
1097.059
1097.393
1097.87
1098.347
1098.776
1099.253
1099.634
1100.206
1100.683
1101.255
1101.732
1102.304
1102.877
1103.449
1104.069
1104.641
1105.118
1105.642
1105.928
1106.262
1106.501
1106.644
1106.644
1106.405
1106.167
1105.69
1105.213
1104.879
1104.546
1104.641
1104.641
1104.975
1105.213
1105.595
1105.928
1106.167
1106.501
1106.739
1106.882
1107.216
1107.454
1107.693
1107.931
1108.026
1108.17
1108.17
1108.17
1108.026
1108.026
1108.17
1108.36
1108.742
1109.123
1109.6
1110.029
1110.363
1110.601
1110.506
1110.363
1109.791
1109.219
1108.503
1107.788
1107.454
1107.073
1107.073
1107.073
1107.216
1107.311
1107.454
1107.55
1107.788
1107.788
1107.931
1107.931
1108.026
1108.17
1108.265
1108.503
1108.742
1108.98
1109.076
1109.457
1109.648
1110.029
1110.268
1110.363
1110.601
1110.506
1110.601
1110.363
1110.363
1110.125
1109.648
1109.028
1092.005
1090.813
1092.529
1090.479
1085.949
1087.809
1085.043
1088.19
1081.467
1080.751
1081.467
1080.847
1081.514
1082.087
1077.414
1071.978
1070.881
1058.865
1043.177
1022.1
986.0516
967.9794
955.9155
953.8651
950.3364
947.9523
906.8489
894.5465
884.7236
878.9063
876.0452
874.1855
873.0411
873.2795
866.9854
866.7469
864.172
853.5385
852.0126
851.202
842.8097
838.2321
813.2458
784.7309
766.2296
766.1819
759.2201
759.7446
758.2665
760.1261
758.934
755.9777
756.7883
755.5485
756.8359
755.3101
752.1152
750.351
748.9204
746.5839
745.058
742.8169
745.1534
743.103
743.6276
741.9109
740.5281
739.8605
740.242
728.6548
722.1222
717.783
716.877
707.4833
693.8934
686.9316
674.3431
668.335
659.275
650.2628
649.0707
643.5394
638.7711
635.2902
612.545
591.4211
580.8353
578.165
571.7278
568.4376
565.5289
561.9526
555.9921
552.6066
547.0753
540.6379
536.7279
535.6312
533.5808
529.9091
520.9446
513.1245
509.7866
504.9229
506.2103
501.9665
498.2471
477.7432
475.4066
473.1655
473.1655
470.7336
472.2119
471.3058
468.1587
468.4448
468.4448
466.0606
465.8699
461.1969
460.7201
456.2855
453.5675
447.2256
446.6057
447.0825
443.0294
438.7856
432.3006
427.866
425.7202
419.8074
418.8538
416.5173
414.4669
412.5595
412.0827
408.7925
408.6494
408.9832
404.5486
403.595
402.5459
397.7776
399.5895
397.7299
395.6318
395.9656
392.8185
391.1018
391.1972
388.5746
389.0991
386.3335
384.0446
382.8525
383.7109
383.4247
380.0869
381.0406
379.3716
378.7041
377.3212
376.2245
372.4098
369.6918
367.2123
363.9221
358.6292
361.6333
356.9603
356.6742
356.102
356.2927
354.8145
353.1456
353.0979
350.5707
351.8105
350.1415
348.711
346.0407
347.4236
347.2328
344.7056
345.087
341.9876
341.1293
339.1266
336.6947
335.2642
333.8814
337.2192
333.0707
330.5435
332.1171
330.2574
317.7166
312.1376
306.2248
302.9823
298.8339
295.496
289.6309
288.5818
286.5314
285.7208
278.5683
278.4729
275.5642
272.274
273.7999
271.225
270.6528
268.9838
265.6937
263.6909
264.1678
261.7836
261.0207
256.7768
255.8231
256.5384
254.1542
256.7291
251.9608
248.0507
246.4771
248.7659
242.5671
243.1393
242.5671
239.1815
237.6556
236.1774
238.0848
236.8927
234.0317
234.6516
229.7401
229.6925
226.8791
227.3083
224.8287
222.9691
218.9636
217.0086
216.8179
214.4814
210.1421
207.4718
199.7948
192.0223
189.0659
185.585
182.5333
180.8167
176.6205
176.239
172.7581
171.423
165.9393
162.8876
157.0702
159.0729
154.829
151.9203
146.246
143.8141
142.0021
146.2936
138.9027
124.7406
122.6425
88.78708
71.38252
63.37166
61.89346