File: Testing Code/Tensile Specimen/K-P-K 1 ST.csv
0
0.01041667
0.02389583
0.03725
0.05054167
0.06388541
0.07726041
0.0905625
0.1038854
0.1172187
0.1305729
0.1438958
0.1571979
0.1705729
0.1839167
0.1971979
0.2105625
0.2239167
0.2372188
0.2505417
0.2639062
0.2772396
0.2905521
0.303875
0.3172396
0.3305833
0.3438646
0.3572292
0.3705938
0.3838646
0.3972187
0.4105729
0.4238958
0.4372188
0.4505521
0.4639167
0.4772187
0.4905417
0.5038958
0.5172604
0.5305312
0.5438958
0.55725
0.5705417
0.5838854
0.5972188
0.6105729
0.6238854
0.6372083
0.6505729
0.6638958
0.6772083
0.6905521
0.7039375
0.7171979
0.7305521
0.7439166
0.7572083
0.7705625
0.783875
0.7972604
0.8105625
0.8238646
0.8372396
0.8505729
0.863875
0.8772187
0.8905938
0.903875
0.9172187
0.9305625
0.9439062
0.9572291
0.9705312
0.9839166
0.9972292
1.010531
1.023896
1.03725
1.050542
1.063875
1.07726
1.090552
1.103885
1.117219
1.130563
1.143896
1.157198
1.170573
1.183906
1.197198
1.210562
1.223917
1.237208
1.250542
1.263906
1.27724
1.290552
1.303875
1.31724
1.330573
1.343854
1.357229
1.370583
1.383865
1.397219
1.410573
1.423885
1.437219
1.450552
1.463906
1.477219
1.490531
1.503885
1.51725
1.530521
1.543896
1.55725
1.570531
1.583885
1.597219
1.610573
1.623875
1.637208
1.650573
1.663896
1.677198
1.690552
1.703927
1.717188
1.730542
1.743906
1.757208
1.770552
1.783875
1.79725
1.810552
1.823865
1.83724
1.850562
1.863865
1.877208
1.890583
1.903865
1.917208
1.930562
1.943885
1.957219
1.970531
1.983917
1.997229
2.010531
2.023885
2.03724
2.050542
2.063875
2.07725
2.090542
2.103875
2.117208
2.130563
2.143896
2.157187
2.170573
2.183906
2.197187
2.210552
2.223906
2.237208
2.250531
2.263906
2.277229
2.290542
2.303864
2.317229
2.330573
2.343854
2.357229
2.370583
2.383854
2.397219
2.410563
2.423885
2.437208
2.450552
2.463906
2.477208
2.490531
2.503886
2.51725
2.530521
2.543885
2.55724
2.570531
2.583875
2.597219
2.610573
2.623875
2.637198
2.650573
2.663885
2.677198
2.690542
2.703927
2.717187
2.730542
2.743906
2.757208
2.770552
2.783864
2.79725
2.810552
2.823854
2.837229
2.850563
2.863865
2.877208
2.890583
2.903865
2.917208
2.930562
2.943885
2.957219
2.970531
2.983906
2.997229
3.010531
3.023885
3.03724
3.050531
3.063875
3.07725
3.090542
3.103875
3.117208
3.130563
3.143885
3.157187
3.170563
3.183906
3.197187
3.210552
3.223906
3.237208
3.250542
3.263896
3.277229
3.290542
3.303864
3.317229
3.330562
3.343854
3.357219
3.370583
3.383854
3.397208
3.410563
3.423885
3.437208
3.450542
3.463906
3.477208
3.490531
3.503885
3.51724
3.530521
3.543885
3.55724
3.570531
3.583875
3.597219
3.610563
3.623875
3.637198
3.650573
3.663885
3.677198
3.690542
3.703927
3.717198
3.730542
3.743906
3.757198
3.770552
3.783864
3.79724
3.810552
3.823854
3.837219
3.850563
3.863865
3.877208
3.890583
3.903865
3.917208
3.930552
3.943875
3.957208
3.970531
3.983906
3.997219
4.010521
4.023885
4.037229
4.050521
4.063865
4.07724
4.090542
4.103865
4.117208
4.130552
4.143885
4.157187
4.170562
4.183896
4.197177
4.210552
4.223906
4.237198
4.250521
4.263896
4.277219
4.290531
4.303864
4.317219
4.330563
4.343844
4.357219
4.370573
4.383844
4.397208
4.410563
4.423885
4.437198
4.450541
4.463896
4.477208
4.490521
4.503875
4.51724
4.53051
4.543875
4.55724
4.570521
4.583865
4.597208
4.610562
4.623865
4.637187
4.650552
4.663875
4.677187
4.690531
4.703917
4.717187
4.730531
4.743896
4.757198
4.770542
4.783854
4.797239
4.810542
4.823854
4.837219
4.850552
4.863854
4.877198
4.890573
4.903854
4.917198
4.930552
4.943875
4.957208
4.970521
4.983896
4.997219
5.01051
5.023875
5.037229
5.050521
5.063865
5.07724
5.090531
5.103865
5.117198
5.130552
5.143885
5.157177
5.170552
5.183896
5.197177
5.210542
5.223896
5.237198
5.250521
5.263885
5.277219
5.290531
5.303854
5.317219
5.330552
5.343843
5.357219
5.370573
5.383844
5.397198
5.410552
5.423875
5.437198
5.450541
5.463896
5.477208
5.490521
5.503875
5.517229
5.53051
5.543875
5.55724
5.570521
5.583865
5.597208
5.610562
5.623865
5.637187
5.650552
5.663875
5.677187
5.690531
5.703906
5.717177
5.730531
5.743896
5.757198
5.770542
5.783854
5.797239
5.810542
5.823843
5.837208
5.850552
5.863854
5.877198
5.890573
5.903854
5.917198
5.930542
5.943875
5.957208
5.97051
5.983896
5.997219
6.01051
6.023875
6.037229
6.050521
6.063865
6.07724
6.090531
6.103865
6.117198
6.130552
6.143885
6.157177
6.170552
6.183886
6.197166
6.210542
6.223896
6.237198
6.250521
6.263885
6.277208
6.290531
6.303854
6.317219
6.330552
6.343843
6.357208
6.370563
6.383833
6.397198
6.410552
6.423875
6.437198
6.450531
6.463896
6.477198
6.490521
6.503864
6.517229
6.5305
6.543875
6.55724
6.570521
6.583854
6.597198
6.610552
6.623854
6.637187
6.650552
6.663865
6.677187
6.690531
6.703906
6.717177
6.730531
6.743896
6.757187
6.770531
6.783854
6.797229
6.810531
6.823843
6.837208
6.850542
6.863843
6.877198
6.890573
6.903854
6.917187
6.930542
6.943875
6.957198
6.9705
6.983896
6.997208
7.01051
7.023865
7.037219
7.05051
7.063854
7.077229
7.090521
7.103854
7.117198
7.130542
7.143875
7.157166
7.170552
7.183886
7.197166
7.210531
7.223886
7.237187
7.25051
7.263875
7.277208
7.290521
7.303843
7.317208
7.330552
7.343833
7.357208
7.370563
7.383833
7.397187
7.410552
7.423864
7.437187
7.450531
7.463885
7.477188
7.4905
7.503864
7.517229
7.5305
7.543865
7.557229
7.57051
7.583854
7.597198
7.610552
7.623854
7.637177
7.650552
7.663875
7.677177
7.690521
7.703896
7.717166
7.730521
7.743886
7.757187
7.770531
7.783844
7.797229
7.810531
7.823833
7.837208
7.850542
7.863843
7.877187
7.890573
7.903844
7.917187
7.930531
7.943864
7.957198
7.9705
7.983885
7.997208
8.0105
8.023865
8.037219
8.05051
8.063854
8.077219
8.090521
8.103854
8.117188
8.130542
8.143875
8.157166
8.170542
8.183886
8.197166
8.210531
8.223886
8.237187
8.25051
8.263875
8.277208
8.290521
8.303843
8.317208
8.330542
8.343833
8.357198
8.370563
8.383833
8.397198
8.410542
8.423864
8.437187
8.450521
8.463885
8.477187
8.49051
8.503864
8.517219
8.530499
8.543864
8.557219
8.57051
8.583854
8.597198
8.610552
8.623854
8.637177
8.650552
8.663864
8.677177
8.69052
8.703906
8.717177
8.730521
8.743885
8.757188
8.770531
8.783844
8.797229
8.810532
8.823833
8.837208
8.850541
8.863844
8.877188
8.890562
8.903833
8.917188
8.930532
8.943865
8.957188
8.9705
8.983886
8.997198
9.0105
9.023865
9.037219
9.05051
9.063844
9.077219
9.090521
9.103844
9.117188
9.130542
9.143865
9.157166
9.170542
9.183875
9.197166
9.210521
9.223886
9.237177
9.25051
9.263875
9.277198
9.29051
9.303843
9.317208
9.330542
9.343822
9.357198
9.370552
9.383822
9.397187
9.410542
9.423864
9.437177
9.450521
9.463875
9.477187
9.49051
9.503864
9.517219
9.53049
9.543854
9.557219
9.5705
9.583843
9.597187
9.610541
9.623843
9.637177
9.650541
9.663854
9.677167
9.69052
9.703896
9.717156
9.730511
9.743885
9.757177
9.770521
9.783844
9.797218
9.810521
9.823823
9.837198
9.850532
9.863833
9.877177
9.890552
9.903833
9.917177
9.930532
9.943865
9.957188
9.9705
9.983875
9.997198
10.01049
10.02385
10.03721
10.0505
10.06384
10.07722
10.09052
10.10384
10.11718
10.13053
10.14385
10.15716
10.17054
10.18388
10.19716
10.21052
10.22388
10.23718
10.25051
10.26386
10.2772
10.29051
10.30383
10.3172
10.33053
10.34382
10.3572
10.37055
10.38382
10.39718
10.41053
10.42385
10.43718
10.45052
10.46387
10.47718
10.4905
10.50385
10.51722
10.53049
10.54385
10.55722
10.5705
10.58384
10.59719
10.61054
10.62384
10.63717
10.65053
10.66385
10.67717
10.69051
10.7039
10.71716
10.73051
10.74387
10.75718
10.77052
10.78383
10.79722
10.81052
10.82382
10.83719
10.85053
10.86383
10.87718
10.89055
10.90383
10.91718
10.93052
10.94386
10.95719
10.97049
10.98388
10.9972
11.0105
11.02385
11.03721
11.0505
11.06383
11.07722
11.09051
11.10384
11.11718
11.13053
11.14386
11.15716
11.17053
11.18388
11.19716
11.21052
11.22388
11.23718
11.2505
11.26386
11.27719
11.29051
11.30383
11.31719
11.33053
11.34382
11.35719
11.37055
11.38382
11.39719
11.41053
11.42384
11.43718
11.45051
11.46387
11.47718
11.4905
11.50385
11.51721
11.53049
11.54385
11.55721
11.5705
11.58384
11.59718
11.61053
11.62384
11.63717
11.65053
11.66385
11.67717
11.69051
11.70389
11.71716
11.73051
11.74387
11.75717
11.77051
11.78383
11.79721
11.81051
11.82382
11.83719
11.85052
11.86382
11.87717
11.89055
11.90382
11.91717
11.93052
11.94384
11.95718
11.97049
11.98388
11.99719
12.01049
12.02385
12.03721
12.05049
12.06383
12.07721
12.09051
12.10383
12.11717
12.13052
12.14385
12.15715
12.17053
12.18386
12.19715
12.21051
12.22386
12.23717
12.2505
12.26386
12.27719
12.2905
12.30383
12.31719
12.33053
12.34381
12.35719
12.37054
12.38381
12.39718
12.41052
12.42385
12.43717
12.45051
12.46386
12.47718
12.49049
12.50384
12.51721
12.53048
12.54384
12.55721
12.57049
12.58383
12.59718
12.61053
12.62383
12.63716
12.65053
12.66385
12.67716
12.6905
12.70389
12.71716
12.7305
12.74386
12.75717
12.77051
12.78382
12.79721
12.81051
12.82381
12.83719
12.85052
12.86382
12.87717
12.89054
12.90383
12.91717
12.93051
12.94384
12.95718
12.97048
12.98386
12.99719
13.01048
13.02384
13.0372
13.05049
13.06383
13.07721
13.0905
13.10383
13.11717
13.13052
13.14384
13.15715
13.17052
13.18386
13.19715
13.21051
13.22386
13.23717
13.25049
13.26385
13.27719
13.2905
13.30382
13.31719
13.33053
13.34381
13.35718
13.37054
13.38381
13.39717
13.41052
13.42384
13.43717
13.4505
13.46386
13.47717
13.49048
13.50384
13.51721
13.53048
13.54384
13.5572
13.57049
13.58383
13.59718
13.61052
13.62383
13.63716
13.65052
13.66384
13.67716
13.6905
13.70389
13.71716
13.7305
13.74386
13.75716
13.77051
13.78382
13.79721
13.81051
13.82381
13.83719
13.85052
13.86382
13.87717
13.89054
13.90382
13.91717
13.93051
13.94384
13.95717
13.97049
13.98386
13.99718
14.01048
14.02384
14.0372
14.05049
14.06383
14.07721
14.0905
14.10383
14.11717
14.13051
14.14384
14.15715
14.17052
14.18385
14.19715
14.2105
14.22386
14.23716
14.25049
14.26385
14.27718
14.29049
14.30382
14.31718
14.33052
14.34381
14.35718
14.37053
14.38381
14.39717
14.41052
14.42384
14.43717
14.4505
14.46385
14.47717
14.49049
14.50384
14.5172
14.53047
14.54383
14.5572
14.57048
14.58382
14.59717
14.61052
14.62382
14.63716
14.65052
14.66384
14.67715
14.69049
14.70387
14.71715
14.7305
14.74386
14.75716
14.7705
14.78382
14.7972
14.8105
14.82381
14.83718
14.85051
14.86381
14.87717
14.89054
14.90381
14.91716
14.93051
14.94384
14.95717
14.97048
14.98385
14.99718
15.01047
15.02383
15.03719
15.05048
15.06381
15.0772
15.0905
15.10382
15.11716
15.13051
15.14384
15.15714
15.17051
15.18385
15.19713
15.2105
15.22385
15.23716
15.25048
15.26384
15.27718
15.29049
15.30382
15.31718
15.33052
15.3438
15.35717
15.37053
15.3838
15.39717
15.41052
15.42384
15.43716
15.45049
15.46385
15.47717
15.49048
15.50383
15.51719
15.53047
15.54383
15.5572
15.57048
15.58382
15.59717
15.61052
15.62382
15.63716
15.65052
15.66383
15.67715
15.69049
15.70387
15.71715
15.73049
15.74385
15.75716
15.7705
15.78381
15.7972
15.81049
15.8238
15.83718
15.85051
15.86381
15.87716
15.89053
15.90381
15.91715
15.9305
15.94384
15.95717
15.97047
15.98385
15.99717
16.01047
16.02383
16.03719
16.05049
16.06382
16.0772
16.09049
16.10382
16.11716
16.13051
16.14384
16.15714
16.17051
16.18385
16.19714
16.2105
16.22385
16.23716
16.25048
16.26384
16.27718
16.29049
16.30381
16.31718
16.33051
16.3438
16.35717
16.37053
16.3838
16.39716
16.41051
16.42383
16.43716
16.45049
16.46385
16.47716
16.49048
16.50383
16.51719
16.53046
16.54383
16.5572
16.57048
16.58382
16.59716
16.61052
16.62382
16.63715
16.65051
16.66383
16.67715
16.69049
16.70387
16.71713
16.73049
16.74385
16.75714
16.7705
16.78381
16.7972
16.8105
16.8238
16.83717
16.8505
16.86381
16.87715
16.89053
16.90381
16.91714
16.9305
16.94383
16.95717
16.97047
16.98385
16.99717
17.01047
17.02383
17.03719
17.05047
17.06381
17.07719
17.09048
17.10381
17.11716
17.13051
17.14383
17.15714
17.17051
17.18384
17.19714
17.21049
17.22384
17.23715
17.25048
17.26384
17.27717
17.29048
17.3038
17.31717
17.33051
17.34379
17.35718
17.37053
17.38379
17.39716
17.41051
17.42382
17.43715
17.45049
17.46384
17.47716
17.49047
17.50382
17.51719
17.53046
17.54382
17.55719
17.57047
17.58381
17.59716
17.61051
17.62381
17.63713
17.6505
17.66382
17.67714
17.69049
17.70387
17.71712
17.73048
17.74384
17.75714
17.77049
17.7838
17.79719
17.81049
17.8238
17.83717
17.8505
17.8638
17.87715
17.89052
17.90381
17.91714
17.9305
17.94383
17.95716
17.97046
17.98384
17.99717
18.01046
18.02382
18.03718
18.05047
18.0638
18.07719
18.09048
18.10381
18.11715
18.1305
18.14383
18.15713
18.1705
18.18384
18.19712
18.21049
18.22384
18.23715
18.25047
18.26383
18.27717
18.29048
18.3038
18.31717
18.33051
18.34379
18.35716
18.37052
18.38379
18.39715
18.4105
18.42382
18.43715
18.45048
18.46384
18.47715
18.49047
18.50382
18.51718
18.53046
18.54382
18.55719
18.57047
18.58381
18.59715
18.61051
18.62381
18.63713
18.65051
18.66382
18.67714
18.69048
18.70385
18.71712
18.73048
18.74384
18.75714
18.77049
18.7838
18.79719
18.81049
18.82379
18.83717
18.8505
18.8638
18.87715
18.89052
18.9038
18.91714
18.93049
18.94382
18.95716
18.96756