File: Testing Code/Tensile Specimen/P-K 3 FT.csv
-1.049042
-0.9059906
-0.9059906
-0.9059906
-0.9059906
19.93179
25.84457
30.32684
38.67149
43.48755
45.15648
52.35672
52.73819
60.51064
63.61008
70.19043
73.86208
77.34299
80.87158
86.54594
90.26527
95.22438
98.13309
102.9968
106.8115
108.6235
112.009
116.539
122.3087
124.5975
126.3142
133.3237
136.8999
137.5198
142.765
149.3931
149.4408
151.8726
158.0715
161.2663
163.3167
165.7963
171.2799
173.7595
177.0496
179.1
183.1055
182.6763
190.0673
192.4038
194.1681
197.6013
199.5087
204.3724
206.8996
208.1871
212.0495
214.1476
219.059
223.2075
224.9241
223.7797
228.5004
232.029
235.8437
241.2796
240.0875
246.0957
245.6188
250.0534
254.2973
253.4389
258.0643
259.924
262.1651
265.8844
268.8408
272.274
274.3721
277.5669
276.8517
282.4783
287.7712
284.5764
291.8243
292.5396
297.1172
297.2126
303.0777
303.793
302.9823
308.2752
311.8038
312.8052
315.5231
319.4809
320.2915
322.2943
324.3446
328.5408
332.5462
332.737
335.741
338.459
340.4617
339.4604
344.6102
347.2328
348.2342
353.0026
353.3363
356.4358
360.4889
362.9684
363.3022
365.5434
369.6442
369.978
370.4548
372.9343
373.9834
377.8458
380.3253
382.5188
385.952
388.2885
389.9574
396.5854
397.0146
396.347
397.3007
400.2094
401.2108
404.1195
405.5977
409.7939
413.1794
414.6099
414.2761
418.0432
418.4723
419.6167
422.0963
425.2911
427.9614
428.5336
429.5349
432.2529
434.0649
437.4504
438.0226
441.6466
441.2174
443.5062
447.8931
447.3209
445.8904
450.8972
452.0416
456.4285
457.0961
460.1479
459.4803
461.5784
462.8658
465.1547
466.4898
468.8263
469.5892
474.8821
474.596
476.8848
477.5047
478.5538
482.3685
483.3221
484.6096
485.5156
487.8998
488.472
491.7621
491.1423
494.2894
494.6232
497.9611
501.8711
499.9637
502.6817
504.8752
505.4474
507.4501
507.6408
508.4038
512.0754
510.8356
514.3165
514.4596
517.1776
519.9432
523.901
521.4691
524.1871
525.6176
526.8097
527.7634
529.48
531.1966
532.9132
534.2007
539.1598
536.8232
537.2524
540.4949
542.593
544.6911
545.8832
546.9323
548.6488
548.4581
552.702
551.0807
553.2264
554.9431
558.567
558.9008
558.3286
561.285
561.7142
562.8109
565.5289
566.6733
568.1515
569.7727
571.5847
569.6774
573.2537
573.7781
573.2059
576.0193
576.9253
580.8831
580.4062
584.7931
583.8871
583.744
586.7481
589.0369
588.0356
590.9443
594.3298
596.5233
593.4238
595.9034
598.8598
599.2889
602.2454
601.3394
601.9592
606.2985
605.011
606.3938
608.6826
609.7317
611.639
614.5954
615.5491
616.312
616.8842
617.0273
618.6962
620.1267
622.6063
624.1798
622.5586
626.7071
627.8038
629.0436
627.5654
629.425
631.4755
632.5245
632.2861
635.3855
637.3882
637.579
637.8651
639.5817
641.8228
645.4944
643.2533
646.7343
649.6429
645.113
644.4454
649.3568
648.6416
654.0775
651.3596
652.9331
655.4127
656.4141
656.8432
659.0844
661.0394
662.1838
662.6606
661.3732
664.5679
664.6156
664.9494
667.3813
668.8118
669.3363
670.5761
673.0079
672.102
673.3894
677.2041
674.6769
678.2055
677.7286
681.4003
678.873
682.1632
681.9248
684.7382
684.2136
686.3117
685.1673
687.2654
688.2191
688.6482
691.0801
691.1755
690.8893
691.6046
694.2749
696.2299
697.1359
697.1836
697.3743
697.9943
698.0896
699.7585
700.7599
702.6672
702.3811
704.2408
704.4792
707.7694
707.3879
706.6727
709.629
710.3443
711.1549
713.1577
711.8702
712.347
715.3511
715.5895
718.4506
719.1658
718.5936
720.0718
719.5472
721.0731
720.5486
722.456
722.6467
723.2189
724.6971
727.4151
726.5568
726.6998
726.986
729.6563
732.1835
730.6576
733.9001
735.6167
731.802
736.3319
734.52
738.0009
740.5758
739.9559
739.8605
742.0063
740.6235
741.3864
746.2025
747.2515
745.0104
746.5363
746.6316
747.633
751.543
749.7311
748.0621
751.8292
751.4477
752.0676
755.5008
754.1656
753.355
757.4081
757.4081
759.3632
757.2174
756.8359
759.1724
760.746
762.7964
763.8931
762.4626
763.6071
763.0348
764.0362
766.6588
766.468
766.5634
769.4721
768.3754
767.4694
769.186
770.1397
770.0443
771.6656
770.6165
772.5715
771.7133
772.6193
771.4271
771.9517
775.1465
773.6206
772.7146
776.0525
775.0988
775.9571
777.8168
776.9108
778.6274
781.1547
777.7691
779.8672
779.1519
779.0565
779.6765
782.156
781.0593
785.9707
785.8276
784.4448
785.8753
785.78
784.4448
787.5443
789.547
790.596
788.3072
788.7841
791.5497
791.8835
791.645
792.2173
792.7418
795.7458
793.4094
792.5988
795.1736
796.9379
797.1287
797.2241
797.7009
799.7513
800.2281
799.6559
799.4175
800.848
803.5183
802.5646
804.472
803.566
806.5223
806.2839
806.6654
807.0469
807.7621
809.8126
808.4774
810.5278
811.7199
813.5796
813.2458
812.6259
813.9611
814.1041
815.773
813.7226
820.3506
817.7758
817.442
817.728
821.3043
819.2539
820.8752
824.4991
821.5905
822.7349
824.5945
824.4514
825.9296
827.694
828.6476
828.4569
828.6476
832.1285
830.8411
832.2716
831.5563
833.7021
833.9405
832.6053
833.8452
835.4664
834.465
838.1843
835.7525
837.5168
836.6584
838.3274
839.4718
840.044
840.7593
841.2838
842.7143
841.8083
842.3805
843.6203
841.1407
843.9541
842.905
843.1434
847.3873
846.9581
846.6721
846.529
848.484
848.484
849.1993
850.9159
849.5807
849.9146
851.2974
850.296
852.108
855.6366
854.5875
853.3478
855.3982
855.2075
855.5889
856.2088
854.969
854.969
857.9254
858.0685
858.3069
856.781
857.5439
856.3042
859.7851
859.9281
858.8791
858.6884
861.0725
861.7401
858.4976
861.4063
860.9772
861.5017
860.6434
864.9349
860.6434
863.2183
861.5017
863.7905
866.3177
866.4131
865.1733
866.9854
863.5044
863.5998
863.3613
862.2646
865.221
863.1707
866.3177
867.4145
867.4145
867.4622
865.3164
865.4595
865.6501
868.4158
868.988
869.4648
865.4117
867.1284
864.1243
863.7905
866.127
866.2701
867.3191
865.7932
867.9867
868.1774
867.033
869.894
871.3722
870.657
868.5112
868.7973
868.2728
866.3654
871.1815
869.6556
870.2278
871.8491
871.6583
874.2809
866.3654
866.4608
866.6039
866.6992
866.8423
866.9376
867.0807
867.176
867.4145
867.5098
867.7483
867.9867
868.2251
868.4635
868.7019
868.9404
869.2264
869.5126
869.8463
870.0848
870.3232
870.657
870.8954
871.1338
871.4199
871.706
871.9445
872.1829
872.4213
872.612
872.8504
873.0411
873.2319
873.4703
873.7087
873.8518
874.0902
874.1855
874.424
874.6624
874.8531
874.9962
875.2346
875.3777
875.5684
875.7114
875.9498
876.1406
876.2836
876.5221
876.6651
876.7605
876.8558
876.9989
877.0942
877.285
877.4757
877.4757
877.4757
877.5711
877.5711
877.5711
877.5711
877.5711
877.5711
877.5711
877.5711
877.4757
877.4757
877.3327
877.3327
877.3327
877.2373
877.2373
877.0942
877.0942
877.142
877.2373
877.0942
877.0942
877.1896
877.2373
877.285
877.3327
877.4757
877.5711
877.7142
877.8095
877.9526
878.048
878.1433
878.3817
878.5724
878.7632
879.0016
879.097
879.3354
879.5739
879.8123
880.0507
880.2891
880.4798
880.7183
880.9567
881.1951
881.4335
881.6719
881.9103
882.1487
882.3871
882.6256
882.864
883.0547
883.2932
883.5316
883.77
884.0084
884.2468
884.4852
884.7714
884.9621
885.2005
885.3912
885.6296
885.868
886.1542
886.3449
886.5356
886.6787
886.9171
887.2032
887.3939
887.6324
887.7754
887.9662
888.2046
888.443
888.5861
888.8245
889.0152
889.1583
889.3967
889.4921
889.7305
889.9689
890.1119
890.3027
890.4457
890.6365
890.7795
891.0179
891.1609
891.3994
891.4948
891.5901
891.8286
891.9716
892.067
892.3054
892.4484
892.5438
892.6392
892.7822
892.8776
893.116
893.259
893.4021
893.4974
893.5928
893.7359
893.9266
894.0697
894.2604
894.4034
894.4988
894.5942
894.7849
894.8803
895.0233
895.1187
895.2141
895.3571
895.3571
895.4525
895.4525
895.5956
895.5956
895.5956
895.5956
895.4525
895.4048
895.3571
895.2141
895.1187
895.0233
894.8803
894.6418
894.5465
894.3558
894.165
894.0697
893.8312
893.7359
893.5928
893.4974
893.3544
893.3544
893.259
893.259
893.259
893.259
893.259
893.259
893.259
893.3544
893.3544
893.4974
893.4974
893.5928
893.7359
893.7359
893.8312
893.8789
893.9743
894.0697
894.165
894.3081
894.3081
894.4034
894.5465
894.5465
894.6896
894.7849
894.8803
894.8803
895.0233
895.0233
895.1187
895.2141
895.2141
895.3571
895.3571
895.4525
895.4525
895.5956
895.5956
895.5956
895.6909
895.6909
895.6909
895.6909
895.6909
895.6909
895.6909
895.6909
895.6909
895.5956
895.4525
895.4525
895.3571
895.3571
895.2141
895.1187
895.0233
894.8803
894.7849
894.6418
894.5465
894.4512
894.4034
894.3081
894.165
894.1174
894.0697
893.9266
893.9266
893.9266
893.8312
893.8312
893.7359
893.7359
893.7359
893.7359
893.7359
893.6405
893.5928
893.5452
893.4974
893.4974
893.4974
893.3544
893.259
893.259
893.116
893.0206
893.0206
892.8776
892.7822
892.7822
892.6392
892.5438
892.5438
892.4484
892.4484
892.5438
892.5438
892.4484
892.4484
892.5438
892.5438
892.6392
892.7822
892.7822
892.7822
892.8776
893.0206
893.0683
893.116
893.259
893.259
893.259
893.3544
893.259
893.259
893.116
880.8613
875.473
872.8504
856.6379
850.153
844.574
844.1448
843.5249
840.5209
837.0876
836.6584
836.4678
834.7988
834.4174
833.5114
834.2266
831.0795
828.1231
825.1667
825.7389
824.6422
825.6436
822.3057
824.6422
823.3547
818.9202
819.8738
820.303
822.0196
818.7771
819.54
817.4896
818.4433
816.8698
813.1027
814.8193
814.3902
815.5346
813.3411
814.3902
810.6708
807.6667
803.8998
801.5632
799.4652
800.848
799.5605
799.1791
796.6995
797.2241
799.6082
797.3194
797.1287
798.5592
796.5565
800.1804
801.1818
799.3221
797.3671
799.799
800.3712
799.5129
799.6082
798.4638
796.2227
797.7963
799.5605
798.7023
799.3698
800.5142
799.1314
799.942
802.1355
798.2254
800.0851
801.5156
800.5142
800.1804
801.2295
800.1804
799.3698
803.4229
798.2731
797.3671
792.2173
793.9338
792.9325
790.596
788.1165
789.4993
788.0688
784.4925
785.8753
782.9189
781.3453
778.532
770.0443
769.8059
764.513
756.6929
753.355
753.1643
749.3019
742.5785
741.0526
738.8115
737.9532
735.2829
735.3783
730.8483
727.9396
728.5118
724.6971
722.3129
718.8797
714.2544
714.016
710.9165
708.0078
708.6277
708.3416
705.719
701.809
695.9438
694.6564
692.7967
688.4098
689.6496
685.5964
687.8853
685.1196
681.3049
681.448
678.7777
675.9644
674.3431
671.4821
662.6606
657.7015
651.5026
646.4958
645.4944
640.7738
640.2493
637.8651
635.6716
633.049
631.0463
615.9783
610.5423
608.0151
605.1063
602.0069
599.7181
595.3789
591.9457
591.4211
591.135
586.462
585.556
581.5029
576.8776
573.1583
563.4785
558.8531
554.9908
551.7483
548.0289
541.7347
527.7634
515.9378
500.8698
494.1464
487.2799
478.4584
445.8427
434.9232
421.2379
412.7979
401.1154
378.6564
346.0407
285.7208
250.721
240.469
234.8423
229.5017
220.871
218.6775
216.9132
210.619
208.5209
198.3166
195.6463
191.0686
189.1136
184.3452
183.2008
166.0347
160.3127
156.3549
152.4925
149.9653
147.1519
147.0566
146.0075
145.1969
141.573
143.9571
141.5253
141.7637
126.9341
125.0267
124.0253
123.6916
123.3101
122.0226
124.7406
122.6902
123.167
121.6888
121.8319
122.0703
119.0662
121.1643
120.3537
121.1166
119.8292
120.8782
119.9245
117.7788
117.8741
116.3006
119.5431
117.588
117.5404
117.6834
117.8741
118.5894
118.1126
117.6834
118.9232
116.0145
118.7325
115.5853
118.2556
114.727
115.1562
115.5376
116.539
113.678
116.9682
116.7774
113.5349
115.7761
114.1548
113.1058
112.8197
113.678
114.2979
111.9614
115.49
110.3878
110.96
111.6753
111.0554
111.0554
108.1467
106.4777
105.3333
104.8565
101.757
102.9491
102.9968
99.89738
96.08269
94.55681
93.74619
85.83069
80.06096
73.33755
71.62094
69.66591
68.5215
67.23404
65.23132
65.66048
65.94658
65.23132
59.89075
59.27086