File: Testing Code/Tensile Specimen/P-K 3 ST.csv
0.000302083
0.003260417
0.00725
0.01141667
0.01554167
0.01975
0.02389583
0.02804167
0.03222917
0.03635417
0.04058333
0.04472917
0.04888542
0.0530625
0.05719792
0.06139583
0.06555209
0.06971875
0.07391667
0.07803125
0.08223958
0.08639583
0.09054167
0.09473958
0.09886459
0.1030833
0.1072292
0.1113854
0.1155625
0.1196875
0.1238958
0.1280521
0.1322187
0.1364062
0.1405312
0.1447396
0.1488854
0.1530417
0.1572292
0.1613542
0.1655833
0.1697292
0.1738854
0.1780625
0.1821979
0.1863958
0.1905521
0.1947187
0.1989062
0.2030417
0.2072396
0.2113958
0.2155417
0.2197292
0.2238646
0.2280833
0.2322292
0.2363854
0.2405729
0.2446875
0.2489063
0.2530521
0.2572187
0.2614062
0.2655417
0.26975
0.2738958
0.2780313
0.2822292
0.2863646
0.2905833
0.2947292
0.298875
0.3030729
0.3071875
0.3113958
0.3155521
0.3197187
0.3239167
0.3280312
0.3322396
0.3363854
0.3405313
0.3447292
0.3488646
0.3530833
0.3572292
0.3613854
0.3655625
0.3696875
0.3738958
0.3780521
0.3822187
0.3864062
0.3905312
0.3947396
0.3988958
0.4030521
0.4072292
0.4113646
0.4155833
0.4197292
0.423875
0.4280625
0.4321979
0.4363958
0.4405521
0.4447187
0.4489062
0.4530312
0.4572396
0.4613854
0.4655417
0.4697292
0.4738542
0.4780833
0.4822292
0.4863854
0.4905625
0.4946875
0.4988958
0.5030521
0.5072187
0.5114062
0.5155312
0.5197396
0.5238854
0.5280417
0.5322188
0.5363542
0.5405729
0.5447292
0.5488854
0.5530625
0.5571875
0.5614063
0.5655521
0.5697187
0.5739062
0.5780312
0.5822396
0.5863958
0.5905417
0.5947292
0.5988646
0.6030833
0.6072292
0.6113854
0.6155625
0.6196875
0.6238958
0.6280521
0.6322187
0.6364062
0.6405312
0.6447396
0.6488854
0.6530417
0.6572292
0.6613542
0.6655729
0.6697292
0.673875
0.6780625
0.6821979
0.6863958
0.6905521
0.6947187
0.6989062
0.7030312
0.7072396
0.7113854
0.7155312
0.7197188
0.7238646
0.7280833
0.7322292
0.736375
0.7405625
0.7446875
0.7488958
0.7530521
0.7572187
0.7614062
0.7655312
0.7697291
0.7738854
0.7780312
0.7822292
0.7863542
0.7905729
0.7947292
0.798875
0.8030625
0.8071875
0.8113958
0.8155521
0.8197187
0.8239062
0.8280312
0.8322291
0.8363854
0.8405312
0.8447292
0.8488542
0.8530833
0.8572292
0.8613854
0.8655625
0.8696875
0.8738958
0.8780521
0.8822187
0.8864062
0.8905312
0.8947291
0.8988854
0.9030312
0.9072292
0.9113542
0.9155833
0.9197292
0.923875
0.9280625
0.9321875
0.9363958
0.9405521
0.9447083
0.9489062
0.9530312
0.9572396
0.9613958
0.9655312
0.9697292
0.9738542
0.9780729
0.9822292
0.986375
0.9905729
0.9946875
0.9988854
1.003042
1.007208
1.011406
1.015531
1.01974
1.023885
1.028031
1.032219
1.036354
1.040573
1.044729
1.048875
1.053062
1.057187
1.061396
1.065552
1.069719
1.073906
1.078031
1.08224
1.086396
1.090531
1.094719
1.098854
1.103073
1.107229
1.111375
1.115562
1.119687
1.123885
1.128052
1.132219
1.136406
1.140521
1.14474
1.148885
1.153031
1.157229
1.161354
1.165573
1.169729
1.173875
1.178062
1.182187
1.186396
1.190552
1.194719
1.198906
1.203031
1.207229
1.211385
1.215531
1.219729
1.223854
1.228073
1.232229
1.236375
1.240562
1.244687
1.248896
1.253052
1.257208
1.261406
1.265531
1.26974
1.273885
1.278031
1.282229
1.286354
1.290573
1.294729
1.298875
1.303062
1.307187
1.311396
1.315552
1.319719
1.323906
1.328031
1.332229
1.336385
1.340542
1.344719
1.348854
1.353073
1.357229
1.361375
1.365562
1.369687
1.373896
1.378052
1.382208
1.386406
1.390531
1.39474
1.398885
1.403031
1.407229
1.411354
1.415573
1.419729
1.423875
1.428062
1.432187
1.436396
1.440552
1.444708
1.448906
1.453031
1.457229
1.461385
1.465531
1.469729
1.473854
1.478073
1.482229
1.486375
1.490562
1.494687
1.498896
1.503052
1.507219
1.511406
1.515531
1.51974
1.523885
1.528042
1.532229
1.536354
1.540573
1.544729
1.548875
1.553062
1.557187
1.561396
1.565552
1.569708
1.573906
1.578031
1.58224
1.586385
1.590542
1.594719
1.598854
1.603073
1.607229
1.611375
1.615562
1.619687
1.623896
1.628052
1.632208
1.636406
1.640531
1.644729
1.648885
1.653042
1.657229
1.661354
1.665563
1.669729
1.673875
1.678062
1.682187
1.686396
1.690552
1.694708
1.698906
1.703031
1.707229
1.711385
1.715531
1.719719
1.723854
1.728073
1.732229
1.736385
1.740562
1.744687
1.748896
1.753052
1.757219
1.761406
1.765531
1.769729
1.773885
1.778031
1.782229
1.786354
1.790573
1.794729
1.798875
1.803062
1.807177
1.811396
1.815552
1.819708
1.823896
1.828021
1.832229
1.836385
1.840531
1.844729
1.848854
1.853073
1.857229
1.861375
1.865562
1.869687
1.873885
1.878052
1.882208
1.886406
1.890531
1.894729
1.898885
1.903042
1.907219
1.911354
1.915573
1.919729
1.923875
1.928062
1.932187
1.936396
1.940552
1.944708
1.948906
1.953031
1.957229
1.961385
1.965542
1.969729
1.973854
1.978073
1.982229
1.986375
1.990562
1.994687
1.998885
2.003052
2.007208
2.011406
2.015531
2.019729
2.023885
2.028031
2.032219
2.036354
2.040573
2.044729
2.048875
2.053062
2.057188
2.061396
2.065552
2.069719
2.073906
2.078031
2.082229
2.086385
2.090542
2.094719
2.098854
2.103073
2.107229
2.111375
2.115562
2.119688
2.123885
2.128052
2.132208
2.136406
2.140521
2.144729
2.148885
2.153031
2.157219
2.161354
2.165573
2.169729
2.173875
2.178062
2.182188
2.186396
2.190552
2.194719
2.198906
2.203031
2.207229
2.211385
2.215542
2.219719
2.223854
2.228073
2.232229
2.236375
2.240562
2.244688
2.248896
2.253052
2.257219
2.261406
2.265521
2.269729
2.273885
2.278031
2.282219
2.286354
2.290573
2.294729
2.298875
2.303062
2.307188
2.311385
2.315552
2.319708
2.323906
2.328021
2.332229
2.336385
2.340531
2.344719
2.348854
2.353073
2.357229
2.361375
2.365552
2.369688
2.373885
2.378052
2.382208
2.386396
2.390521
2.39474
2.398885
2.403042
2.407219
2.411354
2.415573
2.419729
2.423885
2.428052
2.432177
2.436396
2.440542
2.444708
2.448896
2.453031
2.457229
2.461385
2.465531
2.469719
2.473854
2.478073
2.482219
2.486375
2.490552
2.494677
2.498885
2.503052
2.507208
2.511396
2.515531
2.519729
2.523875
2.528031
2.532219
2.536354
2.540573
2.544719
2.548875
2.553062
2.557188
2.561385
2.565542
2.569708
2.573896
2.578021
2.582229
2.586385
2.590531
2.594719
2.598854
2.603073
2.607219
2.611375
2.615562
2.619688
2.623896
2.628042
2.632208
2.636396
2.640531
2.644729
2.648885
2.653031
2.657219
2.661354
2.665562
2.669729
2.673875
2.678052
2.682188
2.686385
2.690542
2.694708
2.698896
2.703021
2.707229
2.711375
2.715531
2.719719
2.723854
2.728073
2.732219
2.736375
2.740552
2.744688
2.748885
2.753042
2.757208
2.761406
2.765531
2.769729
2.773875
2.778031
2.782219
2.786354
2.790573
2.794719
2.798875
2.803062
2.807177
2.811396
2.815542
2.819708
2.823896
2.828021
2.832229
2.836385
2.840531
2.844729
2.848854
2.853073
2.857219
2.861375
2.865552
2.869677
2.873885
2.878052
2.882208
2.886396
2.890531
2.894729
2.898875
2.903031
2.907219
2.911354
2.915573
2.919719
2.923875
2.928062
2.932177
2.936396
2.940542
2.944698
2.948896
2.953021
2.957229
2.961385
2.965521
2.969719
2.973844
2.978073
2.982219
2.986375
2.990562
2.994688
2.998885
3.003042
3.007208
3.011396
3.015521
3.019729
3.023875
3.028021
3.032208
3.036344
3.040573
3.044719
3.048865
3.053052
3.057177
3.061396
3.065542
3.069708
3.073896
3.078021
3.082229
3.086385
3.090531
3.094719
3.098844
3.103073
3.107219
3.111365
3.115552
3.119677
3.123885
3.128042
3.132198
3.136396
3.14051
3.144729
3.148885
3.153031
3.157219
3.161344
3.165562
3.169719
3.173875
3.178062
3.182177
3.186396
3.190542
3.194708
3.198896
3.203021
3.207229
3.211385
3.215531
3.219719
3.223844
3.228073
3.232219
3.236365
3.240552
3.244677
3.248885
3.253042
3.257208
3.261396
3.265521
3.269729
3.273885
3.278021
3.282219
3.286344
3.290573
3.294719
3.298865
3.303052
3.307177
3.311385
3.315542
3.319708
3.323906
3.328021
3.332219
3.336375
3.340521
3.344708
3.348844
3.353062
3.357219
3.361365
3.365552
3.369677
3.373885
3.378042
3.382198
3.386396
3.390521
3.394729
3.398885
3.403031
3.407208
3.411344
3.415562
3.419719
3.423875
3.428052
3.432177
3.436385
3.440542
3.444698
3.448896
3.453021
3.457219
3.461375
3.465521
3.469719
3.473844
3.478062
3.482219
3.486365
3.490552
3.494677
3.498885
3.503052
3.507198
3.511396
3.515521
3.519729
3.523875
3.528031
3.532219
3.536344
3.540562
3.544719
3.548865
3.553052
3.557177
3.561385
3.565542
3.569698
3.573896
3.578021
3.582229
3.586375
3.590531
3.594708
3.598844
3.603073
3.607219
3.611365
3.615552
3.619677
3.623885
3.628042
3.632208
3.636396
3.640521
3.644729
3.648875
3.653031
3.657219
3.661344
3.665562
3.669719
3.673865
3.678052
3.682177
3.686385
3.690542
3.694708
3.698896
3.70301
3.707219
3.711385
3.715521
3.719708
3.723844
3.728062
3.732219
3.736365
3.740552
3.744677
3.748885
3.753042
3.757198
3.761396
3.765521
3.769719
3.773875
3.778021
3.782219
3.786344
3.790562
3.794719
3.798865
3.803052
3.807177
3.811385
3.815542
3.819708
3.823896
3.828021
3.832219
3.836385
3.840531
3.844719
3.848844
3.853073
3.857219
3.861365
3.865552
3.869677
3.873875
3.878042
3.882198
3.886396
3.890521
3.894729
3.898875
3.903021
3.907219
3.911344
3.915573
3.919719
3.923865
3.928062
3.932177
3.936385
3.940542
3.944698
3.948896
3.953021
3.957219
3.961375
3.965521
3.969708
3.973844
3.978062
3.982219
3.986365
3.990562
3.994677
3.998875
4.003042
4.007198
4.011396
4.015521
4.019719
4.023875
4.028021
4.032208
4.036344
4.040563
4.044719
4.048864
4.053052
4.057177
4.061385
4.065542
4.069698
4.073896
4.078021
4.082219
4.086375
4.090521
4.094719
4.098844
4.103063
4.107219
4.111364
4.115552
4.119677
4.123875
4.128042
4.132198
4.136396
4.140511
4.144729
4.148875
4.153031
4.157219
4.161344
4.165563
4.169719
4.173864
4.178062
4.182177
4.186385
4.190542
4.194698
4.198896
4.203021
4.207219
4.211375
4.215531
4.219719
4.223844
4.228063
4.232219
4.236364
4.240552
4.244677
4.248885
4.253042
4.257208
4.261396
4.265521
4.269729
4.273875
4.278021
4.282208
4.286344
4.290563
4.294719
4.298864
4.303052
4.307177
4.311375
4.315542
4.319698
4.323896
4.328021
4.332219
4.336375
4.340521
4.344719
4.348844
4.353063
4.357219
4.361364
4.365552
4.369677
4.373875
4.378042
4.382198
4.386396
4.390521
4.394729
4.398875
4.403031
4.407219
4.411344
4.415563
4.419719
4.423864
4.428052
4.432177
4.436375
4.440531
4.444698
4.448896
4.453021
4.457229
4.461375
4.465521
4.469708
4.473844
4.478063
4.482219
4.486364
4.490552
4.494677
4.498885
4.503042
4.507198
4.511396
4.515521
4.519719
4.523875
4.528021
4.532208
4.536344
4.540563
4.544719
4.548875
4.553052
4.557177
4.561375
4.565542
4.569698
4.573896
4.578021
4.582229
4.586375
4.590531
4.594719
4.598844
4.603063
4.607219
4.611364
4.615552
4.619677
4.623885
4.628042
4.632198
4.636396
4.640521
4.644719
4.648875
4.653031
4.657219
4.661344
4.665552
4.669719
4.673864
4.678052
4.682177
4.686375
4.690542
4.694698
4.698885
4.703021
4.707219
4.711375
4.715521
4.719708
4.723844
4.728063
4.732219
4.736364
4.740552
4.744677
4.748875
4.753042
4.757198
4.761396
4.765511
4.769719
4.773875
4.778031
4.782208
4.786344
4.790563
4.794719
4.798864
4.803052
4.807177
4.811385
4.815542
4.819698
4.823896
4.828021
4.832219
4.836375
4.840531
4.844708
4.848844
4.853063
4.857219
4.861364
4.865552
4.869677
4.873875
4.878042
4.882198
4.886396
4.890521
4.894719
4.898875
4.903031
4.907198
4.911344
4.915563
4.919719
4.923864
4.928052
4.932177
4.936385
4.940542
4.944698
4.948896
4.953021
4.957219
4.961375
4.965531
4.969708
4.973844
4.978063
4.982219
4.986364
4.990552
4.994677
4.998875
5.003031
5.007198
5.011385
5.015521
5.019719
5.023865
5.028021
5.032198
5.036344
5.040563
5.044719
5.048864
5.053041
5.057177
5.061375
5.065542
5.069698
5.073885
5.078021
5.082219
5.086375
5.090521
5.094698
5.098844
5.103063
5.107208
5.111364
5.115552
5.119677
5.123875
5.128042
5.132198
5.136396
5.140511
5.144729
5.148875
5.153031
5.157208
5.161344
5.165563
5.169708
5.173864
5.178052
5.182177
5.186385
5.190406
5.190927