File: Testing Code/Tensile Specimen/P-K-P 2 FT.csv
0
-1.525879
-1.525879
-1.525879
-1.525879
37.86087
63.56239
85.06775
107.0499
125.8373
144.2909
164.2704
184.679
205.1353
224.2565
240.8504
257.1106
275.898
295.2099
313.282
328.5885
347.9481
360.3935
378.8948
390.6727
405.5977
423.8605
437.1166
451.3264
462.9612
476.6941
487.1845
500.3929
511.0741
520.8969
535.1067
546.4554
556.2305
568.1515
577.5452
589.2277
602.1023
610.9714
620.6036
633.0967
642.6812
651.7887
662.5176
669.384
681.1619
689.6496
702.1904
712.1563
721.4546
729.2271
736.7134
748.5389
757.8373
767.8032
776.1002
783.0143
797.7963
801.3248
813.1504
821.6858
829.4583
838.7089
846.7675
854.4445
863.4091
872.7551
879.5261
887.4417
896.6923
902.4143
912.8571
920.3911
930.9292
936.9373
945.6158
954.3419
961.7328
968.7424
975.5134
983.6674
989.3894
998.2586
1003.933
1007.891
1018.095
1026.63
1030.064
1037.168
1042.986
1050.901
1056.814
1058.769
1068.592
1073.36
1079.13
1084.709
1091.337
1097.25
1102.686
1106.024
1114.75
1116.896
1123.476
1128.578
1133.347
1135.731
1142.693
1146.841
1153.898
1156.378
1161.099
1163.101
1168.823
1171.16
1177.835
1181.698
1185.703
1191.759
1194.62
1197.767
1204.681
1207.495
1210.69
1213.551
1215.601
1220.56
1228.476
1231.194
1230.24
1237.774
1239.586
1248.646
1246.881
1251.125
1256.228
1260.567
1262.379
1265.621
1271.677
1275.11
1279.402
1284.695
1287.174
1290.798
1292.61
1297.235
1304.007
1305.723
1311.207
1311.541
1315.546
1320.219
1324.272
1327.61
1331.568
1338.673
1338.148
1343.06
1346.922
1347.589
1352.024
1356.077
1358.032
1366.997
1367.188
1372.671
1375.866
1379.204
1382.971
1385.832
1387.548
1392.365
1395.845
1401.52
1404.381
1405.001
1411.533
1414.776
1419.067
1417.589
1424.122
1426.125
1432.323
1434.755
1434.803
1439.524
1444.054
1446.676
1453.781
1455.832
1456.881
1461.649
1461.506
1465.225
1468.468
1475.763
1478.386
1481.342
1485.3
1486.921
1492.357
1494.741
1497.412
1501.656
1504.564
1505.423
1512.432
1513.338
1513.481
1521.921
1524.925
1528.072
1531.315
1531.553
1536.608
1539.469
1540.804
1543.999
1550.102
1549.816
1555.014
1554.394
1559.877
1561.928
1568.127
1570.749
1575.375
1576.424
1581.24
1583.052
1588.202
1590.156
1591.539
1599.073
1599.121
1599.598
1608.467
1608.849
1609.516
1612.806
1618.671
1619.864
1621.437
1622.2
1625.967
1630.783
1634.55
1637.793
1639.509
1643.419
1647.329
1651.192
1651.955
1655.626
1658.487
1663.065
1664.829
1667.452
1669.55
1672.554
1678.276
1680.04
1683.235
1684.904
1689.911
1690.722
1693.249
1697.969
1699.352
1700.163
1706.409
1706.886
1712.99
1715.469
1717.091
1722.145
1723.909
1727.2
1729.631
1731.348
1736.116
1736.498
1740.551
1742.84
1748.228
1749.468
1752.424
1756.62
1755.238
1757.956
1762.772
1764.631
1768.303
1771.259
1776.075
1776.838
1781.034
1780.51
1785.183
1787.233
1790.667
1793.671
1794.195
1801.014
1800.823
1801.109
1806.307
1808.262
1811.933
1817.417
1817.656
1821.136
1824.236
1827.717
1828.337
1834.059
1834.917
1836.586
1841.593
1842.117
1844.788
1846.361
1851.606
1854.086
1855.612
1859.474
1864.099
1866.484
1866.865
1868.343
1872.492
1876.45
1876.02
1881.361
1882.887
1885.986
1889.372
1892.662
1892.233
1900.053
1899.481
1902.103
1906.347
1908.922
1910.687
1912.451
1915.789
1919.031
1920.652
1923.275
1925.707
1930.857
1931.429
1933.67
1936.96
1940.441
1938.105
1942.492
1945.257
1948.452
1949.787
1955.08
1956.987
1961.088
1960.802
1963.615
1968.527
1967.192
1973.295
1973.724
1978.159
1983.07
1982.26
1984.024
1986.551
1989.174
1991.797
1992.512
1998.663
1999.521
2002.144
2004.48
2009.726
2011.538
2012.682
2013.731
2017.593
2019.548
2023.077
2023.888
2026.415
2029.371
2030.897
2035.427
2035.332
2037.907
2042.341
2045.679
2044.296
2049.78
2051.115
2056.932
2055.216
2059.984
2062.082
2065.516
2064.419
2068.853
2070.284
2074.242
2074.719
2078.009
2083.635
2080.631
2085.686
2086.639
2091.551
2094.126
2094.221
2097.416
2104.092
2102.375
2105.188
2108.383
2108.908
2114.201
2116.299
2119.112
2119.97
2122.45
2124.786
2127.504
2128.697
2133.751
2134.705
2136.183
2138.472
2140.045
2141.762
2146.959
2146.912
2147.913
2150.059
2157.164
2156.115
2156.782
2162.266
2165.89
2167.129
2169.18
2172.136
2175.14
2176.38
2178.049
2180.815
2182.341
2184.01
2186.06
2189.493
2193.022
2195.692
2197.695
2198.505
2201.653
2204.132
2203.274
2207.947
2210.855
2213.526
2215.433
2217.96
2219.868
2223.778
2223.396
2226.877
2227.688
2230.12
2234.507
2237.558
2237.797
2238.607
2243.233
2246.809
2246.332
2248.478
2251.196
2255.297
2253.819
2257.299
2260.685
2262.878
2265.31
2267.122
2268.41
2272.32
2277.756
2276.945
2278.042
2279.806
2283.716
2285.91
2287.245
2288.151
2291.441
2296.257
2294.731
2298.403
2298.021
2300.978
2305.746
2307.033
2308.702
2307.558
2312.946
2314.472
2317.953
2320.909
2322.483
2323.627
2325.058
2329.826
2331.638
2334.452
2335.644
2339.125
2341.557
2341.032
2345.419
2346.659
2347.612
2353.048
2351.093
2355.003
2357.721
2358.007
2361.488
2363.682
2367.735
2368.355
2371.025
2371.931
2374.458
2374.84
2378.273
2382.326
2383.661
2384.996
2387.285
2389.908
2391.72
2388.239
2389.336
2394.581
2395.201
2399.254
2397.728
2403.355
2402.926
2405.548
2406.788
2411.27
2412.891
2414.751
2416.086
2418.614
2420.235
2424.479
2424.288
2427.006
2429.438
2433.729
2433.777
2434.778
2438.831
2440.691
2440.643
2440.023
2445.078
2445.698
2448.797
2452.04
2453.232
2457.094
2456.808
2460.813
2464.867
2465.296
2466.726
2471.781
2471.924
2473.879
2476.597
2479.887
2483.129
2485.466
2487.85
2489.662
2493.143
2493.095
2494.812
2499.437
2497.864
2500.2
2503.777
2506.495
2509.928
2512.407
2512.741
2511.74
2514.458
2518.845
2518.702
2521.658
2523.613
2526.236
2528.954
2530.623
2528.62
2535.629
2537.918
2537.489
2540.493
2542.21
2545.118
2544.546
2548.885
2548.552
2553.177
2554.56
2556.944
2559.709
2560.186
2561.14
2564.526
2566.481
2569.246
2569.389
2570.772
2575.064
2574.682
2579.069
2582.359
2583.79
2583.98
2585.697
2590.227
2590.513
2592.564
2594.9
2596.807
2600.145
2603.769
2603.054
2607.203
2607.823
2612.495
2613.354
2616.215
2616.978
2618.17
2620.602
2622.7
2625.37
2626.181
2629.042
2630.806
2635.431
2635.05
2636.48
2638.34
2641.296
2643.585
2644.253
2642.775
2647.924
2649.879
2650.309
2653.265
2655.315
2659.75
2661.848
2662.468
2665.806
2665.472
2668.905
2668.762
2670.717
2676.725
2676.773
2675.629
2681.685
2683.735
2686.596
2687.311
2688.837
2690.268
2692.413
2692.556
2699.804
2698.088
2699.375
2700.758
2704.334
2707.529
2707.815
2710.104
2712.202
2713.06
2718.639
2716.827
2721.023
2721.882
2724.6
2725.124
2729.225
2730.656
2731.609
2734.709
2734.852
2737.856
2739
2742.386
2743.483
2744.865
2748.156
2747.822
2752.018
2749.014
2755.928
2757.502
2738.714
2743.197
2747.774
2751.398
2754.688
2758.169
2757.74
2762.175
2761.412
2765.799
2767.324
2767.754
2770.901
2771.473
2771.664
2774.382
2776.146
2778.435
2778.196
2782.774
2783.346
2786.636
2786.875
2788.019
2786.684
2789.736
2790.928
2794.361
2792.025
2795.649
2798.51
2799.272
2801.847
2803.898
2807.808
2806.187
2811.623
2810.86
2810.621
2815.151
2816.963
2818.775
2819.967
2822.733
2822.065
2824.068
2829.266
2825.832
2829.552
2832.127
2835.178
2835.417
2837.992
2838.945
2839.184
2843.523
2844.906
2845.478
2847.29
2851.152
2849.865
2853.012
2855.492
2855.349
2858.543
2860.642
2862.93
2863.789
2866.364
2865.028
2867.937
2872.515
2872.706
2876.091
2873.85
2878.332
2879.333
2882.91
2883.101
2886.391
2886.391
2891.493
2887.63
2889.776
2889.442
2891.684
2891.922
2893.639
2894.783
2896.547
2895.88
2895.212
2901.506
2902.555
2902.269
2903.795
2908.707
2908.278
2912.331
2910.614
2915.192
2912.569
2913.523
2917.194
2918.243
2909.47
2913.618
2913.38
2914.858
2918.291
2918.148
2920.961
2920.914
2923.584
2922.344
2923.965
2923.727
2923.727
2924.204
2925.92
2927.685
2931.023
2932.644
2933.741
2932.453
2932.406
2938.652
2938.032
2938.223
2940.369
2942.228
2942.61
2944.708
2946.568
2949.476
2949.285
2952.146
2952.576
2954.435
2957.773
2957.821
2956.629
2962.875
2960.729
2964.21
2964.02
2965.689
2968.788
2971.315
2971.506
2972.126
2971.983
2975.178
2979.04
2975.368
2978.182
2981.281
2981.758
2984.715
2986.622
2986.956
2988.529
2988.338
2990.389
2992.582
2994.347
2993.441
2995.443
2993.25
2997.446
3001.547
3003.073
3003.836
3006.077
3006.935
3006.363
3010.94
3011.704
3012.896
3010.082
3014.04
3016.71
3018.808
3019.094
3021.145
3020.144
3023.768
3024.578
3026.915
3027.534
3030.539
3029.776
3029.346
3033.209
3036.118
3037.929
3038.502
3040.314
3041.315
3040.695
3045.75
3048.515
3044.653
3047.133
3049.708
3048.468
3052.092
3053.474
3055.096
3054.428
3057.814
3055.859
3058.72
3061.152
3065.252
3063.059
3063.822
3063.965
3070.402
3070.688
3069.592
3073.454
3073.549
3074.265
3079.176
3078.604
3078.747
3082.514
3083.468
3083.801
3086.853
3088.76
3087.473
3093.052
3093.195
3092.623
3092.051
3095.293
3098.965
3098.965
3098.965
3102.732
3104.83
3105.783
3103.828
3107.739
3108.501
3107.595
3113.604
3112.745
3112.459
3116.178
3116.846
3119.135
3118.801
3121.424
3122.807
3124.905
3125.667
3126.001
3128.147
3130.15
3129.244
3133.249
3133.345
3136.396
3134.775
3138.065
3139.019
3136.969
3138.399
3138.352
3143.454
3143.358
3144.264
3145.647
3146.124
3148.842
3150.559
3151.083
3151.369
3154.087
3154.564
3158.617
3158.331
3159.857
3158.283
3160.477
3163.719
3165.865
3170.49
3169.441
3170.109
3171.11
3170.872
3173.065
3174.734
3175.497
3177.643
3179.073
3180.122
3183.079
3182.22
3186.035
3181.744
3186.369
3188.229
3189.564
3189.087
3190.899
3193.521
3194.666
3194.666
3196.24
3196.43
3199.482
3200.913
3199.387
3200.483
3201.008
3204.155
3207.827
3209.782
3209.353
3208.685
3211.737
3210.402
3213.501
3213.978
3215.456
3215.79
3216.267
3218.174
3220.129
3218.842
3221.083
3221.369
3222.704
3226.662
3226.185
3227.901
3228.092
3226.757
3229.284
3229.666
3231.621
3232.431
3234.434
3234.291
3234.816
3237.772
3235.865
3236.866
3237.677
3239.012
3238.201
3241.587
3237.772
3240.251
3242.636
3241.873
3240.156
3242.159
3238.821
3239.393
3240.395
3240.442
3243.923
3241.157
3242.636
3242.397
3246.594
3245.449
3246.546
3245.974
3247.5
3246.164
3246.403
3247.452
3247.023
3248.644
3247.023
3249.455
3251.791
3251.886
3252.172
3251.696
3251.314
3253.126
3249.836
3253.555
3252.22
3255.558
3255.32
3253.937
3253.651
3251.982
3256.416
3258.896
3255.129
3258.896
3256.559
3261.28
3259.945
3262.52
3263.569
3264.094
3263.712
3264.141
3265.285
3265.572
3266.859
3268.099
3266.478
3269.863
3265.572
3269.815
3269.005
3268.146
3270.006
3269.672
3268.957
3270.769
3273.344
3272.867
3273.726
3271.389
3274.059
3276.682
3273.106
3277.635
3274.632
3276.825
3277.826
3279.114
3277.779
3276.586
3277.826
3276.92
3274.965
3278.589
3277.254
3278.017
3277.779
3278.828
3280.21
3279.257
3277.683
3277.683
3275.823
3281.212
3282.022
3279.734
3280.687
3280.02
3278.017
3278.685
3275.395
3276.11
3276.301
3280.163
3277.063
3278.208
3279.591
3277.254
3277.969
3277.492
3278.923
3279.781
3277.874
3277.874
3277.969
3277.969
3278.017
3278.112
3278.112
3278.112
3277.969
3277.874
3277.874
3277.874
3277.874
3277.779
3277.635
3277.588
3277.54
3277.397
3277.397
3277.159
3277.063
3276.92
3276.777
3276.586
3276.348
3276.157
3276.014
3275.776
3275.538
3275.204
3274.917
3274.584
3254.127
3250.79
3247.929
3242.874
3240.108
3239.393
3238.773
3236.294
3233.385
3232.336
3228.76
3229.761
3227.854
3222.084
3218.698
3216.171
3217.03
3216.934
3211.975
3209.877
3211.069
3205.681
3203.63
3204.06
3196.43
3191.376
3182.077
3174.209
3157.52
3147.316
3129.578
3112.793
3100.062
3084.23
3058.958
3042.03
3012.943
2987.48
2967.978
2944.326
2918.386
2881.622
2845.526
2792.835
2754.211
2720.356
2677.393
2634.096
2561.14
2371.74
2274.323
2213.097
2159.739
2100.754
2057.075
2016.258
1978.683
1929.855
1765.919
1477.957
1408.768
1277.065
1200.294
1142.883
1110.792
1083.326
1067.829
1052.904
1037.359
1018.095
1006.794
996.1605
986.5284
981.4263
960.8269
935.4114
896.7877
880.6229
871.706
859.9758
845.48
833.559
817.3943
805.4257
798.5592
793.314
786.3044
776.1002
773.3345
766.2296
760.9844
756.3591
752.5921
750.1602
748.3005
745.0104
742.9123
738.9069
732.3742
696.2776
662.4222
647.8787
629.8542
619.1254
607.2521
603.4374
595.1404
595.0451
593.8053
594.3298
591.9933
590.3721
576.4008
563.4308
537.5385
532.9132
519.1803
-157.7377
-190.7349