File: Testing Code/Tensile Specimen/P-K-P 2 ST.csv
0
0.001833333
0.005625
0.009604166
0.01380208
0.01804167
0.02220833
0.02641667
0.03053125
0.03473958
0.03890625
0.04305208
0.04723958
0.05136458
0.05557292
0.05975
0.06388541
0.06807292
0.07219791
0.07639583
0.0805625
0.08471875
0.08891667
0.09304167
0.09722917
0.1014062
0.1055521
0.1097396
0.1138646
0.1180729
0.1222396
0.1263854
0.1305729
0.1346979
0.1388958
0.1430625
0.1472187
0.1514167
0.1555417
0.1597396
0.1639062
0.1680521
0.1722396
0.1763646
0.1805729
0.1847396
0.1888854
0.1930833
0.1971979
0.2013854
0.2055625
0.2097187
0.2139167
0.2180417
0.2222292
0.2264062
0.2305417
0.2347292
0.2388646
0.2430625
0.2472396
0.2513854
0.2555729
0.2596979
0.2638958
0.2680729
0.2722187
0.2764167
0.2805313
0.2847396
0.2889062
0.2930417
0.2972396
0.3013646
0.3055729
0.3097396
0.3138854
0.3180729
0.3221875
0.3263854
0.3305625
0.3347187
0.3389167
0.3430313
0.3472292
0.3513958
0.3555417
0.3597396
0.3638646
0.3680625
0.3722396
0.3763854
0.3805729
0.3846979
0.3888854
0.3930625
0.3972187
0.4014167
0.4055417
0.4097292
0.4138958
0.4180417
0.4222396
0.4263646
0.4305729
0.4347396
0.4388854
0.4430729
0.4471979
0.4513958
0.4555625
0.4597187
0.4639167
0.4680417
0.4722292
0.4764062
0.4805417
0.4847396
0.4888646
0.4930729
0.4972396
0.5013854
0.5055833
0.5096875
0.5138854
0.5180625
0.5222188
0.5264167
0.5305312
0.5347292
0.5388958
0.5430416
0.5472292
0.5513542
0.5555729
0.5597396
0.5638854
0.5680729
0.5721979
0.5763854
0.5805521
0.5847083
0.5889167
0.5930312
0.5972292
0.6013958
0.6055416
0.6097396
0.6138542
0.6180729
0.62225
0.6263854
0.6305729
0.6346979
0.6388958
0.6430521
0.6472188
0.6514167
0.6555312
0.6597292
0.6638958
0.6680416
0.6722292
0.6763542
0.6805625
0.6847396
0.6888854
0.6930729
0.6971979
0.7013854
0.7055625
0.7097188
0.7139167
0.7180312
0.7222292
0.7263958
0.7305416
0.7347292
0.7388646
0.7430729
0.7472396
0.7513854
0.7555729
0.7596875
0.7638854
0.7680625
0.7722083
0.7764062
0.7805417
0.7847396
0.7888958
0.7930416
0.7972396
0.8013646
0.8055729
0.8097396
0.8138854
0.8180729
0.8221875
0.8263854
0.8305625
0.8347188
0.8389062
0.8430312
0.8472292
0.8513958
0.8555416
0.8597396
0.8638542
0.8680625
0.8722396
0.8763854
0.8805625
0.8846875
0.8888854
0.8930625
0.8972188
0.9014062
0.9055312
0.9097292
0.9138958
0.9180312
0.9222292
0.9263542
0.9305729
0.9347396
0.9388854
0.9430729
0.9471875
0.9513854
0.9555625
0.9597188
0.9639062
0.9680312
0.9722292
0.9763958
0.9805416
0.9847292
0.9888542
0.9930625
0.9972396
1.001375
1.005573
1.009688
1.013885
1.018062
1.022208
1.026406
1.030531
1.034729
1.038896
1.043031
1.047229
1.051354
1.055573
1.05974
1.063875
1.068073
1.072188
1.076385
1.080562
1.084719
1.088906
1.093031
1.097229
1.101396
1.105531
1.109729
1.113854
1.118073
1.12224
1.126375
1.130573
1.134688
1.138896
1.143062
1.147208
1.151406
1.155531
1.159729
1.163896
1.168031
1.172229
1.176354
1.180562
1.18474
1.188875
1.193073
1.197188
1.201385
1.205552
1.209708
1.213906
1.218031
1.222229
1.226396
1.230531
1.234729
1.238854
1.243073
1.24724
1.251375
1.255563
1.259688
1.263885
1.268062
1.272208
1.276417
1.280531
1.284729
1.288896
1.293031
1.297229
1.301354
1.305562
1.309729
1.313875
1.318073
1.322188
1.326385
1.330552
1.334708
1.338906
1.343031
1.347229
1.351396
1.355531
1.359729
1.363854
1.368062
1.37224
1.376375
1.380573
1.384688
1.388885
1.393052
1.397208
1.401406
1.405531
1.409729
1.413896
1.418042
1.422229
1.426365
1.430573
1.43474
1.438875
1.443063
1.447188
1.451385
1.455562
1.459708
1.463906
1.468031
1.472229
1.476396
1.480531
1.484729
1.488854
1.493062
1.49724
1.501375
1.505562
1.509688
1.513885
1.518062
1.522208
1.526417
1.530531
1.534719
1.538896
1.543031
1.547229
1.551354
1.555562
1.55974
1.563875
1.568062
1.572187
1.576385
1.580552
1.584708
1.588906
1.593031
1.597229
1.601396
1.605531
1.609729
1.613854
1.618062
1.62224
1.626375
1.630573
1.634687
1.638885
1.643052
1.647208
1.651406
1.655531
1.659719
1.663896
1.668031
1.672229
1.676354
1.680562
1.68474
1.688885
1.693073
1.697187
1.701375
1.705552
1.709708
1.713917
1.718031
1.722229
1.726396
1.730531
1.734729
1.738854
1.743062
1.74724
1.751375
1.755562
1.759687
1.763885
1.768052
1.772208
1.776406
1.780531
1.784729
1.788896
1.793031
1.797229
1.801354
1.805562
1.80974
1.813875
1.818073
1.822187
1.826385
1.830562
1.834708
1.838906
1.843031
1.847219
1.851396
1.855531
1.859729
1.863854
1.868062
1.872229
1.876375
1.880562
1.884687
1.888885
1.893052
1.897208
1.901406
1.905531
1.909719
1.913896
1.918042
1.922229
1.926354
1.930562
1.93474
1.938885
1.943073
1.947187
1.951385
1.955552
1.959708
1.963906
1.968031
1.972219
1.976396
1.980531
1.984729
1.988854
1.993062
1.99724
2.001375
2.005563
2.009687
2.013885
2.018063
2.022208
2.026406
2.030521
2.034719
2.038896
2.043031
2.047229
2.051354
2.055562
2.059729
2.063875
2.068073
2.072187
2.076385
2.080552
2.084708
2.088906
2.093031
2.097229
2.101396
2.105531
2.109719
2.113854
2.118062
2.12224
2.126385
2.130573
2.134687
2.138885
2.143063
2.147208
2.151406
2.155531
2.159729
2.163896
2.168031
2.172229
2.176354
2.180562
2.18474
2.188875
2.193073
2.197187
2.201375
2.205552
2.209708
2.213906
2.218031
2.222219
2.226396
2.230531
2.234729
2.238854
2.243062
2.24724
2.251375
2.255563
2.259687
2.263885
2.268052
2.272208
2.276417
2.280531
2.284729
2.288896
2.293042
2.297229
2.301354
2.305562
2.309729
2.313875
2.318063
2.322187
2.326375
2.330552
2.334708
2.338917
2.343031
2.347229
2.351396
2.355531
2.359729
2.363854
2.368062
2.37224
2.376375
2.380573
2.384687
2.388885
2.393052
2.397208
2.401406
2.405531
2.409729
2.413896
2.418031
2.422229
2.426354
2.430562
2.434729
2.438875
2.443063
2.447187
2.451385
2.455563
2.459708
2.463906
2.468031
2.472229
2.476396
2.480531
2.484729
2.488854
2.493062
2.49724
2.501375
2.505563
2.509687
2.513875
2.518052
2.522208
2.526417
2.530531
2.534719
2.538885
2.543031
2.547219
2.551354
2.555562
2.559729
2.563875
2.568063
2.572187
2.576375
2.580552
2.584708
2.588906
2.593021
2.597229
2.601396
2.605542
2.609729
2.613854
2.618062
2.62224
2.626375
2.630563
2.634677
2.638885
2.643052
2.647208
2.651406
2.655531
2.659719
2.663896
2.668031
2.672229
2.676344
2.680562
2.68474
2.688875
2.693073
2.697187
2.701375
2.705562
2.709708
2.713906
2.718031
2.722229
2.726385
2.730542
2.734719
2.738854
2.743062
2.747229
2.751375
2.755573
2.759687
2.763885
2.768052
2.772208
2.776406
2.780531
2.784729
2.788896
2.793042
2.797229
2.801354
2.805562
2.809729
2.813875
2.818063
2.822177
2.826385
2.830552
2.834708
2.838906
2.843031
2.847219
2.851396
2.855531
2.859729
2.863854
2.868052
2.872229
2.876375
2.880563
2.884687
2.888875
2.893052
2.897208
2.901396
2.905531
2.909719
2.913885
2.918031
2.922219
2.926354
2.930562
2.934729
2.938875
2.943063
2.947177
2.951385
2.955552
2.959708
2.963906
2.968031
2.972219
2.976385
2.980531
2.984719
2.988854
2.993062
2.997229
3.001364
3.005563
3.009677
3.013885
3.018052
3.022208
3.026406
3.030521
3.034719
3.038896
3.043031
3.047219
3.051344
3.055562
3.059729
3.063875
3.068063
3.072187
3.076385
3.080552
3.084708
3.088906
3.093021
3.097219
3.101385
3.105531
3.109719
3.113854
3.118062
3.122229
3.126375
3.130563
3.134687
3.138885
3.143052
3.147208
3.151406
3.155531
3.159719
3.163885
3.168031
3.172229
3.176354
3.180562
3.184729
3.188875
3.193073
3.197177
3.201375
3.205542
3.209698
3.213906
3.218031
3.222219
3.226385
3.230531
3.234708
3.238844
3.243052
3.247229
3.251375
3.255552
3.259677
3.263875
3.268052
3.272208
3.276396
3.280521
3.284719
3.288885
3.293031
3.297219
3.301344
3.305562
3.309729
3.313875
3.318063
3.322177
3.326375
3.330552
3.334698
3.338906
3.343021
3.347219
3.351385
3.355531
3.359719
3.363844
3.368062
3.372229
3.376375
3.380563
3.384677
3.388885
3.393052
3.397208
3.401396
3.405521
3.409719
3.413885
3.418031
3.422229
3.426354
3.430562
3.434729
3.438864
3.443063
3.447177
3.451385
3.455552
3.459698
3.463896
3.468021
3.472229
3.476385
3.480521
3.484729
3.488844
3.493062
3.497229
3.501375
3.505552
3.509677
3.513875
3.518052
3.522208
3.526406
3.530521
3.534719
3.538885
3.543021
3.547219
3.551344
3.555552
3.559729
3.563864
3.568063
3.572177
3.576375
3.580542
3.584698
3.588896
3.593021
3.597219
3.601385
3.605531
3.609719
3.613844
3.618062
3.622229
3.626364
3.630563
3.634677
3.638875
3.643042
3.647198
3.651406
3.655521
3.659719
3.663885
3.668021
3.672219
3.676344
3.680562
3.684729
3.688864
3.693052
3.697177
3.701375
3.705552
3.709698
3.713906
3.718021
3.722219
3.726385
3.730521
3.734719
3.738844
3.743052
3.747229
3.751375
3.755563
3.759687
3.763885
3.768052
3.772198
3.776396
3.780521
3.784719
3.788885
3.793031
3.797219
3.801344
3.805562
3.809729
3.813864
3.818063
3.822177
3.826375
3.830552
3.834698
3.838896
3.843021
3.847219
3.851385
3.855531
3.859719
3.863844
3.868052
3.872219
3.876364
3.880552
3.884677
3.888875
3.893052
3.897198
3.901396
3.905521
3.909719
3.913885
3.918021
3.922219
3.926344
3.930552
3.934729
3.938864
3.943063
3.947177
3.951375
3.955552
3.959698
3.963896
3.968021
3.972219
3.976385
3.980521
3.984719
3.988844
3.993052
3.997229
4.001365
4.005552
4.009677
4.013875
4.018052
4.022198
4.026396
4.030521
4.034719
4.038886
4.043031
4.047219
4.051344
4.055552
4.059729
4.063865
4.068062
4.072177
4.076375
4.080552
4.084698
4.088906
4.093021
4.097219
4.101386
4.105531
4.109719
4.113844
4.118052
4.122229
4.126365
4.130562
4.134677
4.138875
4.143052
4.147198
4.151396
4.155521
4.159719
4.163886
4.168031
4.172219
4.176344
4.180552
4.184729
4.188865
4.193062
4.197177
4.201375
4.205542
4.209698
4.213896
4.218021
4.222219
4.226386
4.230521
4.234708
4.238844
4.243052
4.247229
4.251365
4.255552
4.259677
4.263875
4.268052
4.272198
4.276396
4.280521
4.284719
4.288886
4.293021
4.297208
4.301344
4.305552
4.309719
4.313865
4.318062
4.322177
4.326375
4.330552
4.334698
4.338896
4.34301
4.347208
4.351386
4.355531
4.359719
4.363844
4.368052
4.372229
4.376365
4.380562
4.384677
4.388875
4.393042
4.397198
4.401396
4.405521
4.409719
4.413886
4.418031
4.422219
4.426344
4.430552
4.434729
4.438865
4.443062
4.447177
4.451375
4.455552
4.459698
4.463906
4.468021
4.472219
4.476386
4.480531
4.484719
4.488844
4.493052
4.497229
4.501375
4.505562
4.509677
4.513865
4.518052
4.522198
4.526396
4.530521
4.534708
4.538886
4.543031
4.547208
4.551344
4.555552
4.559729
4.563865
4.568052
4.572166
4.576375
4.580542
4.584698
4.588896
4.593021
4.597219
4.601386
4.605531
4.609719
4.613844
4.618052
4.622229
4.626365
4.630552
4.634677
4.638875
4.643042
4.647198
4.651396
4.655521
4.659708
4.663886
4.668021
4.672219
4.676344
4.680552
4.684729
4.688865
4.693052
4.697177
4.701375
4.705552
4.709698
4.713896
4.718021
4.722219
4.726386
4.730521
4.734719
4.738844
4.743052
4.747229
4.751375
4.755562
4.759677
4.763875
4.768052
4.772198
4.776396
4.780521
4.784719
4.788886
4.793021
4.797219
4.801344
4.805562
4.809729
4.813865
4.818062
4.822177
4.826375
4.830552
4.834698
4.838896
4.843021
4.847219
4.851386
4.855531
4.859729
4.863844
4.868052
4.872229
4.876365
4.880552
4.884677
4.888875
4.893042
4.897198
4.901396
4.905521
4.909708
4.913875
4.918021
4.922219
4.926344
4.930552
4.934729
4.938865
4.943062
4.947177
4.951375
4.955552
4.959698
4.963896
4.968021
4.972208
4.976386
4.980521
4.984719
4.988844
4.993052
4.997219
5.001365
5.005552
5.009677
5.013875
5.018042
5.022198
5.026396
5.03051
5.034708
5.038886
5.043031
5.047219
5.051344
5.055552
5.059719
5.063865
5.068062
5.072177
5.076375
5.080542
5.084698
5.088896
5.093021
5.097208
5.101375
5.105521
5.109719
5.113844
5.118052
5.122229
5.126365
5.130562
5.134677
5.138875
5.143052
5.147198
5.151396
5.155521
5.159719
5.163886
5.168031
5.172219
5.176344
5.180552
5.184729
5.188875
5.193062
5.197177
5.201365
5.205542
5.209698
5.213896
5.218021
5.222208
5.226386
5.230521
5.234719
5.238844
5.243052
5.247219
5.251365
5.255552
5.259677
5.263875
5.268042
5.272198
5.276406
5.280521
5.284719
5.288886
5.293021
5.297208
5.301344
5.305552
5.309719
5.313865
5.318052
5.322166
5.326365
5.330542
5.334698
5.338896
5.343021
5.347208
5.351375
5.355531
5.359719
5.363844
5.368052
5.372229
5.376375
5.380562
5.384677
5.388875
5.393042
5.397198
5.401396
5.405521
5.409708
5.413886
5.418031
5.422219
5.426344
5.430552
5.434719
5.438865
5.443052
5.447177
5.451375
5.455542
5.459698
5.463906
5.468021
5.472219
5.476375
5.48051
5.484708
5.488844
5.493052
5.497219
5.501365
5.505552
5.509677
5.513865
5.518042
5.522198
5.526406
5.530521
5.534708
5.538875
5.543021
5.547219
5.551344
5.555552
5.559719
5.563865
5.568052
5.572166
5.576365
5.580542
5.584698
5.588896
5.593021
5.597208
5.601386
5.605531
5.609708
5.613833
5.618052
5.622219
5.626365
5.630552
5.634562
5.635094